stamp,ax,ay,az,gx,gy,gz,px,py,pz,vx,vy,vz,qw,qx,qy,qz,bw_x,bw_y,bw_z,ba_x,ba_y,ba_z
1776086966.872494698,-2.402884659,0.089537201,9.438266689,0.060483932,0.085113384,-0.011283085,0.000000000,0.000000000,0.000000000,0.000000000,0.000000000,0.000000000,0.991854426,-0.001078473,0.127372033,0.000000000,0.009958435,0.006118694,-0.005679795,0.000000000,0.000000000,0.000000000
1776086966.876728296,-2.412508267,0.067884077,9.462325710,0.058353402,0.082982853,-0.014478881,0.000000550,0.000000875,-0.000000432,0.000260056,0.000413559,-0.000203978,0.991833508,-0.000976570,0.127535632,-0.000028633,0.009958435,0.006118694,-0.005679795,0.000000000,0.000000000,0.000000000
1776086966.882473946,-2.443784996,0.051042761,9.483978830,0.051961817,0.078721792,-0.018739939,0.000002897,0.000004509,-0.000001948,0.000556730,0.000851268,-0.000323833,0.991806221,-0.000851779,0.127748536,-0.000076545,0.009958435,0.006118694,-0.005679795,0.000000000,0.000000000,0.000000000
1776086966.887802124,-2.477467773,0.058260468,9.486384732,0.045570225,0.070199676,-0.019805200,0.000006244,0.000010033,-0.000003687,0.000699731,0.001222207,-0.000329059,0.991783025,-0.000753852,0.127929072,-0.000125824,0.009958435,0.006118694,-0.005679795,0.000000000,0.000000000,0.000000000
1776086966.892481804,-2.515962208,0.070289979,9.522473265,0.043439697,0.060612299,-0.026196789,0.000009514,0.000016606,-0.000004934,0.000697625,0.001586995,-0.000203688,0.991765320,-0.000678850,0.128066613,-0.000176465,0.009958435,0.006118694,-0.005679795,0.000000000,0.000000000,0.000000000
1776086966.896811724,-2.535209425,0.099160809,9.541720482,0.044504963,0.053155445,-0.034718905,0.000012355,0.000024390,-0.000005245,0.000614651,0.002008380,0.000059882,0.991751276,-0.000612668,0.128175561,-0.000239172,0.009958435,0.006118694,-0.005679795,0.000000000,0.000000000,0.000000000
1776086966.902474642,-2.530397621,0.084725396,9.527285069,0.045570225,0.044633329,-0.040045228,0.000015465,0.000037416,-0.000003863,0.000483726,0.002592250,0.000428230,0.991735775,-0.000525639,0.128295599,-0.000341000,0.009958435,0.006118694,-0.005679795,0.000000000,0.000000000,0.000000000
1776086966.906746149,-2.540021229,0.087131298,9.496008341,0.044504963,0.036111213,-0.044306282,0.000017259,0.000049365,-0.000001637,0.000356392,0.003002479,0.000614364,0.991726393,-0.000461313,0.128368084,-0.000427953,0.009958435,0.006118694,-0.005679795,0.000000000,0.000000000,0.000000000
1776086966.912480593,-2.544833034,0.055854566,9.498414243,0.043439697,0.030784894,-0.047502082,0.000018663,0.000067904,0.000002404,0.000133227,0.003463134,0.000794914,0.991716316,-0.000379366,0.128445698,-0.000554886,0.009958435,0.006118694,-0.005679795,0.000000000,0.000000000,0.000000000
1776086966.916766167,-2.588139273,0.046230957,9.508037852,0.041309170,0.024393305,-0.050697874,0.000018685,0.000083288,0.000006210,-0.000122854,0.003716282,0.000981165,0.991710373,-0.000322406,0.128491249,-0.000656095,0.009958435,0.006118694,-0.005679795,0.000000000,0.000000000,0.000000000
1776086966.922326326,-2.626633707,0.075101783,9.488790634,0.035982847,0.021197513,-0.049632605,0.000016463,0.000105000,0.000012426,-0.000676588,0.004093685,0.001254937,0.991704349,-0.000259174,0.128537133,-0.000789006,0.009958435,0.006118694,-0.005679795,0.000000000,0.000000000,0.000000000
1776086966.926712990,-2.662722240,0.058260468,9.488790634,0.030656524,0.016936455,-0.049632605,0.000012172,0.000123665,0.000018407,-0.001279843,0.004416042,0.001471844,0.991700629,-0.000220729,0.128565231,-0.000891202,0.009958435,0.006118694,-0.005679795,0.000000000,0.000000000,0.000000000
1776086966.932480097,-2.667534044,0.082319494,9.464731612,0.026395466,0.013740662,-0.047502082,0.000002133,0.000150409,0.000027611,-0.002201508,0.004858798,0.001720054,0.991697104,-0.000183508,0.128591521,-0.001020734,0.009958435,0.006118694,-0.005679795,0.000000000,0.000000000,0.000000000
1776086966.936825752,-2.667534044,0.079913592,9.452702102,0.017873351,0.009479604,-0.037914697,-0.000009006,0.000172350,0.000035333,-0.002924944,0.005239176,0.001833923,0.991695488,-0.000167605,0.128603311,-0.001103927,0.009958435,0.006118694,-0.005679795,0.000000000,0.000000000,0.000000000
1776086966.942487478,-2.633851414,0.084725396,9.445484395,0.015742820,0.007349075,-0.032588374,-0.000028010,0.000203436,0.000045919,-0.003788353,0.005741782,0.001905277,0.991694560,-0.000159135,0.128609720,-0.001189440,0.009958435,0.006118694,-0.005679795,0.000000000,0.000000000,0.000000000
1776086966.947734833,-2.602574686,0.091943103,9.452702102,0.011481764,0.004153281,-0.024066258,-0.000049556,0.000234871,0.000055976,-0.004423746,0.006239437,0.001927908,0.991694613,-0.000157271,0.128608743,-0.001249599,0.009958435,0.006118694,-0.005679795,0.000000000,0.000000000,0.000000000
1776086966.951658726,-2.612198294,0.087131298,9.464731612,0.000829119,-0.000107776,-0.017674673,-0.000067748,0.000260095,0.000063624,-0.004848759,0.006617354,0.001970486,0.991695607,-0.000168513,0.128600778,-0.001278194,0.009958435,0.006118694,-0.005679795,0.000000000,0.000000000,0.000000000
1776086966.956712484,-2.614604196,0.099160809,9.457513906,-0.005562468,-0.006499363,-0.012348350,-0.000093708,0.000294823,0.000073770,-0.005424737,0.007126015,0.002044759,0.991698633,-0.000202462,0.128577202,-0.001297569,0.009958435,0.006118694,-0.005679795,0.000000000,0.000000000,0.000000000
1776086966.962475777,-2.638663218,0.113596222,9.474355221,-0.016215112,-0.013956215,-0.004891500,-0.000127072,0.000337804,0.000085931,-0.006153382,0.007789379,0.002175518,0.991704663,-0.000263188,0.128530565,-0.001298237,0.009958435,0.006118694,-0.005679795,0.000000000,0.000000000,0.000000000
1776086966.966788530,-2.624227805,0.118408027,9.476761123,-0.017280377,-0.018217273,-0.007022027,-0.000154815,0.000372568,0.000095623,-0.006712082,0.008332080,0.002318641,0.991710799,-0.000320437,0.128483153,-0.001291415,0.009958435,0.006118694,-0.005679795,0.000000000,0.000000000,0.000000000
1776086966.972493887,-2.597762881,0.094349005,9.459919808,-0.019410906,-0.016086744,-0.002760969,-0.000194948,0.000422020,0.000109193,-0.007356442,0.009003470,0.002438291,0.991719300,-0.000400307,0.128417423,-0.001278790,0.009958435,0.006118694,-0.005679795,0.000000000,0.000000000,0.000000000
1776086966.976721525,-2.568892055,0.084725396,9.488790634,-0.018345643,-0.013956215,0.002565354,-0.000226813,0.000460994,0.000119677,-0.007718213,0.009434105,0.002521747,0.991725026,-0.000459300,0.128373189,-0.001259243,0.009958435,0.006118694,-0.005679795,0.000000000,0.000000000,0.000000000
1776086966.982503176,-2.527991718,0.079913592,9.532096873,-0.019410906,-0.006499363,0.011087468,0.001293660,-0.008697586,0.000742882,-0.007180700,0.002748951,0.002915316,0.991681941,0.002999797,0.128671247,-0.001280217,0.009953347,0.006118191,-0.005680354,-0.000000001,0.000000005,-0.000000001
1776086966.986606121,-2.501526795,0.106378516,9.560967699,-0.017280377,-0.000107776,0.014283262,0.001264238,-0.008685983,0.000755454,-0.007161583,0.002907176,0.003213030,0.991684648,0.002947049,0.128652040,-0.001235441,0.009953347,0.006118191,-0.005680354,-0.000000001,0.000000005,-0.000000001
1776086966.992550611,-2.508744501,0.108784418,9.589838525,-0.009823526,0.006283810,0.015348526,0.001222040,-0.008667750,0.000776287,-0.007035644,0.003227216,0.003796152,0.991686084,0.002885592,0.128643015,-0.001166066,0.009953347,0.006118191,-0.005680354,-0.000000001,0.000000005,-0.000000001
1776086966.996833086,-2.496714990,0.125625733,9.597056232,-0.006627733,0.008414339,0.017479055,0.001192168,-0.008653344,0.000793598,-0.006914939,0.003500690,0.004288535,0.991685910,0.002853080,0.128645537,-0.001114136,0.009953347,0.006118191,-0.005680354,-0.000000001,0.000000005,-0.000000001
1776086967.002476215,-2.458220409,0.171337874,9.558561797,-0.004497204,0.008414339,0.013217997,0.001153924,-0.008632065,0.000819289,-0.006639423,0.004040936,0.004816575,0.991685265,0.002817305,0.128651841,-0.001049644,0.009953347,0.006118191,-0.005680354,-0.000000001,0.000000005,-0.000000001
1776086967.006864548,-2.419725974,0.168931972,9.527285069,-0.000236146,0.008414339,0.002565354,0.001125532,-0.008613196,0.000840908,-0.006300245,0.004558366,0.005036559,0.991684723,0.002794334,0.128656782,-0.001016621,0.009953347,0.006118191,-0.005680354,-0.000000001,0.000000005,-0.000000001
1776086967.012263060,-2.393261050,0.178555581,9.512849656,0.002959648,0.005218546,-0.008087292,0.001093020,-0.008586810,0.000868386,-0.005744703,0.005217056,0.005143211,0.991684553,0.002772352,0.128658652,-0.001005817,0.009953347,0.006118191,-0.005680354,-0.000000001,0.000000005,-0.000000001
1776086967.016703606,-2.419725974,0.147278853,9.510443754,0.007220706,0.004153281,-0.018739939,0.001068503,-0.008562544,0.000891339,-0.005297668,0.005712282,0.005194520,0.991684975,0.002759432,0.128655557,-0.001021464,0.009953347,0.006118191,-0.005680354,-0.000000001,0.000000005,-0.000000001
1776086967.022489786,-2.451002702,0.132843440,9.459919808,0.005090177,0.002022753,-0.019805200,0.001038951,-0.008527997,0.000921281,-0.004917053,0.006228746,0.005155242,0.991686092,0.002743467,0.128646983,-0.001059071,0.009953347,0.006118191,-0.005680354,-0.000000001,0.000000005,-0.000000001
1776086967.026770830,-2.501526795,0.147278853,9.409395863,0.002959648,-0.001173041,-0.025131524,0.001018021,-0.008500507,0.000942937,-0.004860908,0.006614134,0.004961711,0.991687656,0.002726247,0.128635010,-0.001093108,0.009953347,0.006118191,-0.005680354,-0.000000001,0.000000005,-0.000000001
1776086967.032597065,-2.544833034,0.149684755,9.411801765,-0.005562468,-0.004368834,-0.025131524,0.000989040,-0.008460282,0.000970887,-0.005087256,0.007194152,0.004632721,0.991691012,0.002686416,0.128609520,-0.001145154,0.009953347,0.006118191,-0.005680354,-0.000000001,0.000000005,-0.000000001
1776086967.036736250,-2.537615327,0.180961483,9.366089624,-0.015149849,-0.009695157,-0.024066258,0.000967450,-0.008429497,0.000989439,-0.005345077,0.007680646,0.004331673,0.991694578,0.002639666,0.128582684,-0.001178650,0.009953347,0.006118191,-0.005680354,-0.000000001,0.000000005,-0.000000001
1776086967.042484045,-2.554456642,0.152090657,9.337218798,-0.022606701,-0.013956215,-0.023000997,0.000935448,-0.008383355,0.001012560,-0.005790139,0.008374782,0.003713291,0.991701361,0.002550837,0.128531775,-0.001219014,0.009953347,0.006118191,-0.005680354,-0.000000001,0.000000005,-0.000000001
1776086967.046890736,-2.552050740,0.123219831,9.337218798,-0.025802493,-0.017152008,-0.019805200,0.000909068,-0.008345542,0.001027759,-0.006182754,0.008787119,0.003185083,0.991707644,0.002471689,0.128484600,-0.001243817,0.009953347,0.006118191,-0.005680354,-0.000000001,0.000000005,-0.000000001
1776086967.052485704,-2.559268447,0.082319494,9.390148645,-0.024737228,-0.019282537,-0.017674673,0.000873128,-0.008295430,0.001044111,-0.006664475,0.009126109,0.002660024,0.991716581,0.002369191,0.128417298,-0.001267556,0.009953347,0.006118191,-0.005680354,-0.000000001,0.000000005,-0.000000001
1776086967.057085991,-2.585733370,0.051042761,9.440672591,-0.028998286,-0.011825686,-0.010217823,0.000841514,-0.008253172,0.001055928,-0.007079838,0.009245570,0.002477365,0.991723155,0.002282694,0.128368013,-0.001275653,0.009953347,0.006118191,-0.005680354,-0.000000001,0.000000005,-0.000000001
1776086967.062490463,-2.578515664,0.077507690,9.443078493,-0.033259347,-0.006499363,-0.001695707,0.000801883,-0.008202832,0.001069146,-0.007586085,0.009383683,0.002414206,0.991728701,0.002172450,0.128327205,-0.001262238,0.009953347,0.006118191,-0.005680354,-0.000000001,0.000000005,-0.000000001
1776086967.066972017,-2.597762881,0.106378516,9.503226047,-0.033259347,-0.001173041,-0.000630442,0.000766963,-0.008160227,0.001080168,-0.007997859,0.009629600,0.002504677,0.991731781,0.002077692,0.128305184,-0.001239822,0.009953347,0.006118191,-0.005680354,-0.000000001,0.000000005,-0.000000001
1776086967.072357655,-2.554456642,0.132843440,9.517661460,-0.032194078,0.004153281,0.003630616,0.000722861,-0.008107141,0.001094430,-0.008379845,0.010084360,0.002791597,0.991733636,0.001966178,0.128292926,-0.001205926,0.009953347,0.006118191,-0.005680354,-0.000000001,0.000000005,-0.000000001
1776086967.076733112,-2.535209425,0.103972614,9.474355221,-0.025802493,0.006283810,0.004695881,0.000685770,-0.008062206,0.001106944,-0.008574119,0.010455167,0.002928717,0.991734078,0.001884427,0.128291034,-0.001173640,0.009953347,0.006118191,-0.005680354,-0.000000001,0.000000005,-0.000000001
1776086967.082491398,-2.496714990,0.087131298,9.479167026,-0.021541435,0.007349075,0.005761147,-0.011034029,-0.013826344,-0.016010423,-0.118048722,-0.039009172,-0.151170787,0.991944749,-0.001062585,0.126666820,0.000050250,0.009966183,0.006124610,-0.005683687,0.000001062,0.000000876,0.000002904
1776086967.086728811,-2.479873675,0.055854566,9.503226047,-0.014084584,0.007349075,0.002565354,-0.011534462,-0.013990807,-0.016650893,-0.118148429,-0.038615211,-0.151122067,0.991944355,-0.001118325,0.126669413,0.000078397,0.009966183,0.006124610,-0.005683687,0.000001062,0.000000876,0.000002904
1776086967.092351675,-2.467844164,0.048636859,9.500820145,-0.009823526,0.003088017,0.000434823,-0.012198903,-0.014206753,-0.017500341,-0.118187131,-0.038194516,-0.151018699,0.991944605,-0.001176897,0.126666903,0.000106240,0.009966183,0.006124610,-0.005683687,0.000001062,0.000000876,0.000002904
1776086967.096622705,-2.494309088,0.048636859,9.512849656,-0.006627733,0.002022753,0.003630616,-0.012703801,-0.014369227,-0.018145120,-0.118241846,-0.037887521,-0.150912530,0.991945522,-0.001213345,0.126659358,0.000127516,0.009966183,0.006124610,-0.005683687,0.000001062,0.000000876,0.000002904
1776086967.102542400,-2.513556305,0.041419153,9.532096873,-0.000236146,-0.003303570,0.001500089,-0.013404307,-0.014592302,-0.019037674,-0.118427722,-0.037479406,-0.150641760,0.991948006,-0.001249587,0.126639520,0.000156782,0.009966183,0.006124610,-0.005683687,0.000001062,0.000000876,0.000002904
1776086967.106850386,-2.506338599,0.055854566,9.486384732,0.004024912,-0.007564628,0.001500089,-0.013914872,-0.014753087,-0.019686317,-0.118604522,-0.037165914,-0.150493431,0.991951134,-0.001264870,0.126614840,0.000174364,0.009966183,0.006124610,-0.005683687,0.000001062,0.000000876,0.000002904
1776086967.112492085,-2.496714990,0.031795544,9.433454884,0.009351235,-0.013956215,0.000434823,-0.014584739,-0.014961685,-0.020535601,-0.118865219,-0.036782769,-0.150580408,0.991957148,-0.001271659,0.126567615,0.000194206,0.009966183,0.006124610,-0.005683687,0.000001062,0.000000876,0.000002904
1776086967.116642475,-2.460626311,0.036607348,9.416613569,0.013612293,-0.016086744,-0.000630442,-0.015078366,-0.015113848,-0.021161042,-0.119005063,-0.036541699,-0.150808272,0.991962703,-0.001267063,0.126524101,0.000205363,0.009966183,0.006124610,-0.005683687,0.000001062,0.000000876,0.000002904
1776086967.122492313,-2.438973191,0.014954229,9.431048982,0.010416498,-0.018217273,0.000434823,-0.015774652,-0.015326764,-0.022044329,-0.119048175,-0.036252316,-0.151178524,0.991971319,-0.001259039,0.126456587,0.000220898,0.009966183,0.006124610,-0.005683687,0.000001062,0.000000876,0.000002904
1776086967.126629353,-2.419725974,0.005330620,9.440672591,0.008285969,-0.020347802,-0.003826234,-0.016267036,-0.015476452,-0.022670246,-0.118988470,-0.036112291,-0.151413254,0.991977960,-0.001259246,0.126404464,0.000229308,0.009966183,0.006124610,-0.005683687,0.000001062,0.000000876,0.000002904
1776086967.132511377,-2.429349583,0.017360131,9.428643080,0.004024912,-0.022478329,-0.007022027,-0.016966631,-0.015688256,-0.023561885,-0.118887245,-0.035904928,-0.151760944,0.991988180,-0.001270249,0.126324123,0.000231584,0.009966183,0.006124610,-0.005683687,0.000001062,0.000000876,0.000002904
1776086967.136771679,-2.458220409,0.019766033,9.459919808,0.006155441,-0.024608860,-0.015544143,-0.017473129,-0.015840833,-0.024208841,-0.118888311,-0.035722813,-0.151952612,0.991996151,-0.001282044,0.126261414,0.000221144,0.009966183,0.006124610,-0.005683687,0.000001062,0.000000876,0.000002904
1776086967.142487049,-2.424537778,0.053448664,9.435860786,0.011481764,-0.024608860,-0.027262051,-0.018152599,-0.016044005,-0.025077994,-0.118881122,-0.035373713,-0.152193482,0.992007241,-0.001290950,0.126174231,0.000177109,0.009966183,0.006124610,-0.005683687,0.000001062,0.000000876,0.000002904
1776086967.146865368,-2.422131876,0.041419153,9.416613569,0.017873351,-0.024608860,-0.034718905,-0.018672984,-0.016198193,-0.025744994,-0.118828601,-0.035058803,-0.152489680,0.992015749,-0.001287697,0.126107418,0.000120937,0.009966183,0.006124610,-0.005683687,0.000001062,0.000000876,0.000002904
1776086967.151666641,-2.405290561,0.017360131,9.421425373,0.023199674,-0.022478329,-0.036849435,-0.019243303,-0.016365900,-0.026478026,-0.118741521,-0.034800825,-0.152859369,0.992024767,-0.001271628,0.126036674,0.000046145,0.009966183,0.006124610,-0.005683687,0.000001062,0.000000876,0.000002904
1776086967.156890631,-2.402884659,0.024577837,9.423831276,0.025330201,-0.018217273,-0.033653643,-0.019863239,-0.016547086,-0.027277598,-0.118600371,-0.034565826,-0.153255785,0.992033527,-0.001244308,0.125967982,-0.000035089,0.009966183,0.006124610,-0.005683687,0.000001062,0.000000876,0.000002904
1776086967.162537813,-2.443784996,0.024577837,9.419019471,0.030656524,-0.017152008,-0.031523112,-0.020532889,-0.016741520,-0.028144213,-0.118562095,-0.034294723,-0.153663756,0.992042049,-0.001203384,0.125901193,-0.000116780,0.009966183,0.006124610,-0.005683687,0.000001062,0.000000876,0.000002904
1776086967.166959286,-2.496714990,0.029389642,9.390148645,0.032787055,-0.013956215,-0.029392581,-0.021057536,-0.016892667,-0.028824384,-0.118755692,-0.034074693,-0.154003492,0.992048131,-0.001162572,0.125853576,-0.000177111,0.009966183,0.006124610,-0.005683687,0.000001062,0.000000876,0.000002904
1776086967.172540426,-2.530397621,0.036607348,9.375713232,0.027460732,-0.007564628,-0.020870466,-0.021721762,-0.017081986,-0.029685254,-0.119269367,-0.033767870,-0.154489104,0.992054113,-0.001113606,0.125806759,-0.000237975,0.009966183,0.006124610,-0.005683687,0.000001062,0.000000876,0.000002904
1776086967.177777767,-2.518368110,0.048636859,9.332406993,0.022134408,0.000957488,-0.012348350,-0.022347927,-0.017257963,-0.030495906,-0.119846530,-0.033432877,-0.155077190,0.992057254,-0.001078682,0.125782224,-0.000271217,0.009966183,0.006124610,-0.005683687,0.000001062,0.000000876,0.000002904
1776086967.182486534,-2.479873675,0.043825055,9.303536167,0.012547027,0.009479604,-0.005956765,-0.013383424,-0.004031368,-0.024357903,-0.063302071,0.045542892,-0.115042765,0.991901657,-0.000425641,0.127000093,-0.001377695,0.009962176,0.006119106,-0.005678825,-0.000003554,-0.000007224,-0.000001752
1776086967.186781168,-2.436567289,0.055854566,9.308347972,0.005090177,0.016936455,-0.001695707,-0.013655593,-0.003835205,-0.024853582,-0.063446197,0.045809647,-0.115793978,0.991899728,-0.000427551,0.127015197,-0.001373443,0.009962176,0.006119106,-0.005678825,-0.000003554,-0.000007224,-0.000001752
1776086967.192481041,-2.422131876,0.036607348,9.334812895,-0.002366675,0.024393305,0.001500089,-0.014017243,-0.003573140,-0.025516307,-0.063451279,0.046144848,-0.116746187,0.991894473,-0.000449786,0.127056356,-0.001354571,0.009962176,0.006119106,-0.005678825,-0.000003554,-0.000007224,-0.000001752
1776086967.196571827,-2.426943680,0.022171935,9.334812895,-0.007692997,0.027589099,-0.003826234,-0.014276743,-0.003384016,-0.025995191,-0.063419203,0.046318651,-0.117382089,0.991889306,-0.000478973,0.127096718,-0.001341532,0.009962176,0.006119106,-0.005678825,-0.000003554,-0.000007224,-0.000001752
1776086967.202477217,-2.472655969,0.024577837,9.370901428,-0.014084584,0.028654365,-0.009152558,-0.014651447,-0.003109829,-0.026690673,-0.063483051,0.046541363,-0.118159309,0.991881012,-0.000540257,0.127161239,-0.001336112,0.009962176,0.006119106,-0.005678825,-0.000003554,-0.000007224,-0.000001752
1776086967.206859112,-2.489497284,0.017360131,9.435860786,-0.022606701,0.031850159,-0.007022027,-0.014929885,-0.002905538,-0.027209153,-0.063602707,0.046701836,-0.118487207,0.991874245,-0.000602375,0.127213764,-0.001333488,0.009962176,0.006119106,-0.005678825,-0.000003554,-0.000007224,-0.000001752
1776086967.212335587,-2.487091382,0.041419153,9.483978830,-0.020476170,0.029719628,-0.012348350,-0.015278483,-0.002649075,-0.027858320,-0.063704991,0.046958103,-0.118587525,0.991865580,-0.000689244,0.127280864,-0.001333436,0.009962176,0.006119106,-0.005678825,-0.000003554,-0.000007224,-0.000001752
1776086967.216704607,-2.482279577,-0.001887086,9.515255558,-0.013019320,0.028654365,-0.009152558,-0.015556852,-0.002443548,-0.028376248,-0.063723311,0.047125710,-0.118503664,0.991859108,-0.000748460,0.127330916,-0.001337033,0.009962176,0.006119106,-0.005678825,-0.000003554,-0.000007224,-0.000001752
1776086967.222509146,-2.472655969,-0.009104793,9.527285069,-0.004497204,0.028654365,-0.010217823,-0.015926576,-0.002169766,-0.029063461,-0.063668242,0.047208099,-0.118280968,0.991850720,-0.000803743,0.127395850,-0.001341697,0.009962176,0.006119106,-0.005678825,-0.000003554,-0.000007224,-0.000001752
1776086967.226707697,-2.479873675,-0.050005130,9.572997210,0.005090177,0.027589099,-0.011283085,-0.016193725,-0.001971643,-0.029559488,-0.063589308,0.047168658,-0.118003692,0.991844804,-0.000825163,0.127441682,-0.001349709,0.009962176,0.006119106,-0.005678825,-0.000003554,-0.000007224,-0.000001752
1776086967.232481003,-2.511150403,-0.071658249,9.587432623,0.014677558,0.030784894,-0.010217823,-0.016560695,-0.001699999,-0.030239091,-0.063537227,0.046934826,-0.117425988,0.991836296,-0.000827163,0.127507716,-0.001364255,0.009962176,0.006119106,-0.005678825,-0.000003554,-0.000007224,-0.000001752
1776086967.236752272,-2.568892055,-0.076470054,9.577809014,0.026395466,0.033980686,-0.010217823,-0.016832375,-0.001500020,-0.030739612,-0.063675429,0.046704229,-0.116940439,0.991829147,-0.000805924,0.127563308,-0.001376796,0.009962176,0.006119106,-0.005678825,-0.000003554,-0.000007224,-0.000001752
1776086967.242482185,-2.592951077,-0.071658249,9.560967699,0.034917582,0.036111213,-0.002760969,-0.017198439,-0.001233312,-0.031407845,-0.064097360,0.046389020,-0.116303091,0.991818615,-0.000747302,0.127645421,-0.001386729,0.009962176,0.006119106,-0.005678825,-0.000003554,-0.000007224,-0.000001752
1776086967.246965408,-2.566486153,-0.042787423,9.493602439,0.041309170,0.037176482,0.000434823,-0.017486623,-0.001025736,-0.031928553,-0.064463834,0.046212026,-0.115988497,0.991809938,-0.000683327,0.127713205,-0.001384795,0.009962176,0.006119106,-0.005678825,-0.000003554,-0.000007224,-0.000001752
1776086967.252481937,-2.559268447,-0.054816934,9.474355221,0.045570225,0.039307009,0.004695881,-0.017843376,-0.000771309,-0.032568041,-0.064875727,0.046029850,-0.115856078,0.991798708,-0.000588717,0.127800969,-0.001374095,0.009962176,0.006119106,-0.005678825,-0.000003554,-0.000007224,-0.000001752
1776086967.257032156,-2.530397621,-0.062034641,9.450296199,0.050896548,0.040372275,0.014283262,-0.018139208,-0.000562324,-0.033095227,-0.065154311,0.045827165,-0.115862904,0.991788995,-0.000497844,0.127876957,-0.001351042,0.009962176,0.006119106,-0.005678825,-0.000003554,-0.000007224,-0.000001752
1776086967.262335539,-2.532803523,-0.076470054,9.409395863,0.053027079,0.043568067,0.017479055,-0.018485518,-0.000320098,-0.033710203,-0.065445133,0.045520507,-0.116055220,0.991776959,-0.000379949,0.127971119,-0.001308630,0.009962176,0.006119106,-0.005678825,-0.000003554,-0.000007224,-0.000001752
1776086967.266492844,-2.547238936,-0.098123169,9.426237178,0.053027079,0.040372275,0.019609584,-0.018758151,-0.000131528,-0.034193075,-0.065713806,0.045197089,-0.116245404,0.991767514,-0.000284627,0.128044929,-0.001270176,0.009962176,0.006119106,-0.005678825,-0.000003554,-0.000007224,-0.000001752
1776086967.272487402,-2.530397621,-0.021134304,9.464731612,0.044504963,0.037176482,0.028131701,-0.019153055,0.000138461,-0.034890262,-0.066040231,0.044880724,-0.116361217,0.991755112,-0.000157814,0.128141876,-0.001197257,0.009962176,0.006119106,-0.005678825,-0.000003554,-0.000007224,-0.000001752
1776086967.276658773,-2.513556305,0.017360131,9.440672591,0.037048113,0.032915421,0.019609584,-0.019428838,0.000325704,-0.035375793,-0.066186308,0.044894894,-0.116430673,0.991747459,-0.000086105,0.128201643,-0.001144380,0.009962176,0.006119106,-0.005678825,-0.000003554,-0.000007224,-0.000001752
1776086967.282402039,-2.491903186,0.024577837,9.455108004,0.027460732,0.028654365,0.014283262,-0.009708836,0.001038459,-0.019877759,-0.018461091,0.043021759,-0.043796465,0.991801024,0.001603208,0.127772184,-0.001558031,0.009953732,0.006120963,-0.005677452,-0.000022510,0.000000784,-0.000032821
1776086967.286713362,-2.496714990,0.022171935,9.527285069,0.027460732,0.021197513,0.010022204,-0.009788463,0.001223894,-0.020066432,-0.018477500,0.043000797,-0.043728217,0.991795842,0.001645612,0.127812268,-0.001524667,0.009953732,0.006120963,-0.005677452,-0.000022510,0.000000784,-0.000032821
1776086967.292483568,-2.470250066,0.012548327,9.548938188,0.032787055,0.014805926,0.010022204,-0.009894762,0.001471811,-0.020317780,-0.018366654,0.042929168,-0.043390966,0.991791431,0.001709169,0.127846100,-0.001487125,0.009953732,0.006120963,-0.005677452,-0.000022510,0.000000784,-0.000032821
1776086967.296922445,-2.467844164,-0.021134304,9.548938188,0.043439697,0.008414339,0.003630616,-0.009975934,0.001662019,-0.020509745,-0.018206492,0.042771698,-0.043101604,0.991789805,0.001774721,0.127858042,-0.001467571,0.009953732,0.006120963,-0.005677452,-0.000022510,0.000000784,-0.000032821
1776086967.302481413,-2.494309088,-0.009104793,9.553749993,0.048766017,0.006283810,0.001500089,-0.010076756,0.001899039,-0.020748256,-0.018067075,0.042503119,-0.042709572,0.991789219,0.001877306,0.127861239,-0.001457689,0.009953732,0.006120963,-0.005677452,-0.000022510,0.000000784,-0.000032821
1776086967.306830168,-2.537615327,0.012548327,9.563373601,0.054092340,0.004153281,0.002565354,-0.010155389,0.002083560,-0.020933172,-0.018096745,0.042358622,-0.042333828,0.991789321,0.001968889,0.127859129,-0.001452596,0.009953732,0.006120963,-0.005677452,-0.000022510,0.000000784,-0.000032821
1776086967.312489510,-2.542427131,0.036607348,9.520067362,0.060483932,0.002022753,0.005761147,-0.010258357,0.002323075,-0.021171532,-0.018291806,0.042285396,-0.041902072,0.991790185,0.002105278,0.127850367,-0.001442121,0.009953732,0.006120963,-0.005677452,-0.000022510,0.000000784,-0.000032821
1776086967.316614389,-2.520774012,0.079913592,9.455108004,0.057288140,-0.002238305,0.015348526,-0.010334151,0.002497658,-0.021344187,-0.018457607,0.042363298,-0.041811638,0.991791658,0.002209631,0.127837409,-0.001421848,0.009953732,0.006120963,-0.005677452,-0.000022510,0.000000784,-0.000032821
1776086967.322485209,-2.477467773,0.101566711,9.423831276,0.053027079,-0.006499363,0.022805378,-0.010442882,0.002747204,-0.021590219,-0.018583748,0.042648937,-0.042003692,0.991795393,0.002350479,0.127806520,-0.001366811,0.009953732,0.006120963,-0.005677452,-0.000022510,0.000000784,-0.000032821
1776086967.326722145,-2.393261050,0.128031635,9.394960450,0.042374432,-0.003303570,0.029196965,-0.010521331,0.002928541,-0.021768885,-0.018447435,0.042949330,-0.042333534,0.991798275,0.002438334,0.127783093,-0.001310526,0.009953732,0.006120963,-0.005677452,-0.000022510,0.000000784,-0.000032821
1776086967.332323551,-2.376419735,0.123219831,9.402178156,0.027460732,0.002022753,0.030262228,-0.010623440,0.003170371,-0.022007597,-0.018010834,0.043396854,-0.042899624,0.991800647,0.002520324,0.127763977,-0.001221155,0.009953732,0.006120963,-0.005677452,-0.000022510,0.000000784,-0.000032821
1776086967.336670160,-2.357172518,0.132843440,9.431048982,0.023199674,0.004153281,0.026001170,-0.010700783,0.003359767,-0.022194898,-0.017576897,0.043749782,-0.043282818,0.991801491,0.002562847,0.127757213,-0.001152566,0.009953732,0.006120963,-0.005677452,-0.000022510,0.000000784,-0.000032821
1776086967.342492819,-2.369202028,0.147278853,9.431048982,0.018938616,0.003088017,0.024935907,-0.010801316,0.003616068,-0.022448191,-0.016954740,0.044286069,-0.043719754,0.991802438,0.002606519,0.127749723,-0.001066786,0.009953732,0.006120963,-0.005677452,-0.000022510,0.000000784,-0.000032821
1776086967.346490860,-2.354766615,0.161714266,9.416613569,0.014677558,-0.001173041,0.017479055,-0.010868255,0.003793974,-0.022623642,-0.016530912,0.044710119,-0.044048588,0.991803777,0.002626963,0.127739331,-0.001015261,0.009953732,0.006120963,-0.005677452,-0.000022510,0.000000784,-0.000032821
1776086967.352486610,-2.304242670,0.207426407,9.392554547,0.011481764,-0.001173041,0.011087468,-0.010964994,0.004064484,-0.022889704,-0.015738351,0.045524016,-0.044701743,0.991806604,0.002643879,0.127717477,-0.000957166,0.009953732,0.006120963,-0.005677452,-0.000022510,0.000000784,-0.000032821
1776086967.356732607,-2.301836768,0.205020505,9.390148645,0.000829119,0.000957488,0.004695881,-0.011030429,0.004259198,-0.023080665,-0.015083515,0.046192582,-0.045246630,0.991808341,0.002639548,0.127704293,-0.000927600,0.009953732,0.006120963,-0.005677452,-0.000022510,0.000000784,-0.000032821
1776086967.363692284,-2.289807257,0.168931972,9.404584058,-0.003431940,0.002022753,-0.008087292,-0.011131473,0.004584047,-0.023398580,-0.013953522,0.047158885,-0.046112694,0.991810514,0.002602457,0.127688310,-0.000908898,0.009953732,0.006120963,-0.005677452,-0.000022510,0.000000784,-0.000032821
1776086967.366633892,-2.292213159,0.137655244,9.435860786,-0.008758262,0.000957488,-0.014478881,-0.011171772,0.004723226,-0.023534675,-0.013445820,0.047469269,-0.046417790,0.991811438,0.002577987,0.127681598,-0.000914079,0.009953732,0.006120963,-0.005677452,-0.000022510,0.000000784,-0.000032821
1776086967.372492075,-2.342737105,0.128031635,9.491196536,-0.015149849,0.002022753,-0.014478881,-0.011247835,0.005002789,-0.023807546,-0.012522276,0.047974238,-0.046741327,0.991813309,0.002511039,0.127668269,-0.000931490,0.009953732,0.006120963,-0.005677452,-0.000022510,0.000000784,-0.000032821
1776086967.376929283,-2.383637441,0.123219831,9.532096873,-0.009823526,-0.000107776,-0.027262051,-0.011302165,0.005216447,-0.024014919,-0.011965943,0.048328737,-0.046728652,0.991814863,0.002457346,0.127657038,-0.000958594,0.009953732,0.006120963,-0.005677452,-0.000022510,0.000000784,-0.000032821
1776086967.382559776,-2.417320072,0.137655244,9.546532286,-0.013019320,0.002022753,-0.029392581,-0.002891912,0.000828579,-0.015946652,0.027279519,0.025837789,-0.013321936,0.991820930,0.001911159,0.127617405,-0.001178016,0.009955431,0.006120624,-0.005676404,-0.000060807,0.000033496,-0.000073282
1776086967.386646271,-2.434161387,0.144872951,9.529690971,-0.011954055,0.005218546,-0.033653643,-0.002779809,0.000935041,-0.016000701,0.027585479,0.026266715,-0.013130660,0.991821605,0.001858934,0.127612494,-0.001224553,0.009955431,0.006120624,-0.005676404,-0.000060807,0.000033496,-0.000073282
1776086967.392491817,-2.458220409,0.106378516,9.517661460,-0.007692997,0.004153281,-0.037914697,-0.002617680,0.001090139,-0.016076809,0.027885516,0.026798386,-0.012908812,0.991822134,0.001790362,0.127608568,-0.001304462,0.009955431,0.006120624,-0.005676404,-0.000060807,0.000033496,-0.000073282
1776086967.396724224,-2.487091382,0.075101783,9.536908678,0.001894383,0.003088017,-0.043241020,-0.002499421,0.001204071,-0.016131014,0.027997429,0.027039609,-0.012705553,0.991822759,0.001753950,0.127603488,-0.001374255,0.009955431,0.006120624,-0.005676404,-0.000060807,0.000033496,-0.000073282
1776086967.402487516,-2.525585816,0.041419153,9.546532286,0.010416498,0.002022753,-0.043241020,-0.002338109,0.001360328,-0.016203070,0.027981399,0.027185355,-0.012299749,0.991823934,0.001729262,0.127593503,-0.001480239,0.009955431,0.006120624,-0.005676404,-0.000060807,0.000033496,-0.000073282
1776086967.406746864,-2.535209425,0.063072272,9.500820145,0.011481764,0.003088017,-0.041110490,-0.002219206,0.001476299,-0.016254924,0.027850276,0.027269503,-0.012048341,0.991824781,0.001721432,0.127586103,-0.001557618,0.009955431,0.006120624,-0.005676404,-0.000060807,0.000033496,-0.000073282
1776086967.412485361,-2.578515664,0.108784418,9.496008341,0.010416498,-0.005434100,-0.047502082,-0.002060426,0.001633676,-0.016323382,0.027488443,0.027580065,-0.011810884,0.991827267,0.001710085,0.127565532,-0.001667950,0.009955431,0.006120624,-0.005676404,-0.000060807,0.000033496,-0.000073282
1776086967.416752577,-2.600168783,0.113596222,9.515255558,0.006155441,-0.013956215,-0.046436813,-0.001943975,0.001752094,-0.016373266,0.027090742,0.027921326,-0.011569166,0.991831427,0.001695257,0.127532219,-0.001754937,0.009955431,0.006120624,-0.005676404,-0.000060807,0.000033496,-0.000073282
1776086967.422503948,-2.609792392,0.130437537,9.524879167,0.010416498,-0.018217273,-0.043241020,-0.001789917,0.001914193,-0.016438571,0.026481867,0.028447434,-0.011140237,0.991839373,0.001676021,0.127469078,-0.001866132,0.009955431,0.006120624,-0.005676404,-0.000060807,0.000033496,-0.000073282
1776086967.426684141,-2.583327468,0.142467048,9.493602439,0.014677558,-0.019282537,-0.040045228,-0.001680104,0.002034037,-0.016484597,0.026057994,0.028891435,-0.010881059,0.991845846,0.001671714,0.127417636,-0.001941470,0.009955431,0.006120624,-0.005676404,-0.000060807,0.000033496,-0.000073282
1776086967.432480574,-2.530397621,0.159308364,9.471949319,0.014677558,-0.017152008,-0.034718905,-0.001530253,0.002203534,-0.016547225,0.025646584,0.029591829,-0.010728095,0.991854626,0.001673443,0.127347801,-0.002034472,0.009955431,0.006120624,-0.005676404,-0.000060807,0.000033496,-0.000073282
1776086967.436670065,-2.530397621,0.159308364,9.512849656,0.010416498,-0.012890950,-0.030457843,-0.001423190,0.002328643,-0.016591916,0.025463282,0.030133556,-0.010606466,0.991860139,0.001671558,0.127303957,-0.002091152,0.009955431,0.006120624,-0.005676404,-0.000060807,0.000033496,-0.000073282
1776086967.442485332,-2.530397621,0.164120168,9.522473265,0.008285969,-0.007564628,-0.029392581,-0.001275762,0.002506110,-0.016652691,0.025240703,0.030901225,-0.010295512,0.991866042,0.001660741,0.127256930,-0.002160941,0.009955431,0.006120624,-0.005676404,-0.000060807,0.000033496,-0.000073282
1776086967.446583509,-2.571297957,0.176149679,9.522473265,0.007220706,-0.000107776,-0.027262051,-0.001172801,0.002633931,-0.016694352,0.025006311,0.031478310,-0.010036071,0.991868545,0.001650314,0.127236780,-0.002206437,0.009955431,0.006120624,-0.005676404,-0.000060807,0.000033496,-0.000073282
1776086967.452147007,-2.588139273,0.200208700,9.517661460,0.010416498,0.006283810,-0.032588374,-0.001035006,0.002811528,-0.016749131,0.024529015,0.032365083,-0.009656047,0.991869472,0.001638577,0.127228531,-0.002272954,0.009955431,0.006120624,-0.005676404,-0.000060807,0.000033496,-0.000073282
1776086967.457150221,-2.556862544,0.224267722,9.455108004,0.007220706,0.013740662,-0.029392581,-0.000913371,0.002975759,-0.016797017,0.024093885,0.033285315,-0.009486177,0.991868092,0.001627721,0.127238297,-0.002335387,0.009955431,0.006120624,-0.005676404,-0.000060807,0.000033496,-0.000073282
1776086967.463618994,-2.549644838,0.219455918,9.426237178,0.004024912,0.020132247,-0.027262051,-0.000759168,0.003195139,-0.016858697,0.023582088,0.034542069,-0.009583978,0.991863489,0.001604582,0.127273146,-0.002406213,0.009955431,0.006120624,-0.005676404,-0.000060807,0.000033496,-0.000073282
1776086967.466492653,-2.511150403,0.221861820,9.426237178,-0.004497204,0.023328042,-0.025131524,-0.000691650,0.003295200,-0.016886383,0.023409086,0.035097993,-0.009684171,0.991860587,0.001586359,0.127295474,-0.002433558,0.009955431,0.006120624,-0.005676404,-0.000060807,0.000033496,-0.000073282
1776086967.472487450,-2.506338599,0.207426407,9.467137515,-0.010888791,0.026523836,-0.020870466,-0.000551910,0.003508993,-0.016944807,0.023211290,0.036228144,-0.009807554,0.991853365,0.001527417,0.127351593,-0.002478240,0.009955431,0.006120624,-0.005676404,-0.000060807,0.000033496,-0.000073282
1776086967.476647615,-2.540021229,0.209832309,9.522473265,-0.015149849,0.028654365,-0.019805200,-0.000455641,0.003661296,-0.016985352,0.023070063,0.036991339,-0.009684448,0.991847672,0.001476243,0.127396050,-0.002502335,0.009955431,0.006120624,-0.005676404,-0.000060807,0.000033496,-0.000073282
1776086967.482594967,-2.573703860,0.190585092,9.544126384,-0.016215112,0.028654365,-0.012348350,0.003653549,-0.002169120,-0.020341792,0.040851344,0.012220779,-0.020384927,0.991909369,0.000772278,0.126896979,-0.003516247,0.009957649,0.006123362,-0.005671204,-0.000097633,0.000077685,-0.000071201
1776086967.486680984,-2.592951077,0.205020505,9.532096873,-0.016215112,0.029719628,-0.017674673,0.003819743,-0.002117627,-0.020424373,0.040496216,0.012983588,-0.020036423,0.991903361,0.000716983,0.126943920,-0.003528354,0.009957649,0.006123362,-0.005671204,-0.000097633,0.000077685,-0.000071201
1776086967.492608547,-2.583327468,0.226673624,9.529690971,-0.016215112,0.028654365,-0.020870466,0.004058173,-0.002037039,-0.020541744,0.039951550,0.014207383,-0.019565146,0.991894591,0.000635165,0.127012024,-0.003558443,0.009957649,0.006123362,-0.005671204,-0.000097633,0.000077685,-0.000071201
1776086967.496663332,-2.578515664,0.221861820,9.527285069,-0.015149849,0.022262778,-0.016609408,0.004219472,-0.001977656,-0.020620457,0.039608272,0.015083038,-0.019259640,0.991889549,0.000580378,0.127051107,-0.003578096,0.009957649,0.006123362,-0.005671204,-0.000097633,0.000077685,-0.000071201
1776086967.502485514,-2.564080251,0.219455918,9.512849656,-0.014084584,0.018001720,-0.011283085,0.004448779,-0.001886216,-0.020731492,0.039161835,0.016327692,-0.018882692,0.991884319,0.000506504,0.127091827,-0.003592877,0.009957649,0.006123362,-0.005671204,-0.000097633,0.000077685,-0.000071201
1776086967.506918669,-2.564080251,0.180961483,9.510443754,-0.017280377,0.012675397,-0.009152558,0.004621686,-0.001811922,-0.020814664,0.038844613,0.017189603,-0.018639961,0.991881714,0.000448924,0.127112297,-0.003595640,0.009957649,0.006123362,-0.005671204,-0.000097633,0.000077685,-0.000071201
1776086967.512297630,-2.595356979,0.173743777,9.505631949,-0.016215112,0.006283810,-0.008087292,0.004829363,-0.001716956,-0.020914130,0.038373520,0.018120647,-0.018343141,0.991880567,0.000376708,0.127121511,-0.003594372,0.009957649,0.006123362,-0.005671204,-0.000097633,0.000077685,-0.000071201
1776086967.516907692,-2.648286827,0.156902461,9.520067362,-0.016215112,0.002022753,-0.009152558,0.005004914,-0.001631692,-0.020997944,0.037786754,0.018869935,-0.018018426,0.991881141,0.000315989,0.127117226,-0.003593447,0.009957649,0.006123362,-0.005671204,-0.000097633,0.000077685,-0.000071201
1776086967.522727489,-2.657910436,0.161714266,9.476761123,-0.013019320,0.002022753,-0.013413616,0.005222091,-0.001519193,-0.021101718,0.036847126,0.019790673,-0.017644049,0.991882619,0.000242940,0.127105653,-0.003600558,0.009957649,0.006123362,-0.005671204,-0.000097633,0.000077685,-0.000071201
1776086967.526755571,-2.653098631,0.192990994,9.435860786,-0.017280377,0.003088017,-0.008087292,0.005369100,-0.001438036,-0.021172594,0.036144617,0.020505010,-0.017546720,0.991883507,0.000191457,0.127098709,-0.003604279,0.009957649,0.006123362,-0.005671204,-0.000097633,0.000077685,-0.000071201
1776086967.532615185,-2.648286827,0.171337874,9.428643080,-0.021541435,0.002022753,-0.001695707,0.005577872,-0.001314730,-0.021275417,0.035113442,0.021581776,-0.017548887,0.991884856,0.000106364,0.127088650,-0.003591079,0.009957649,0.006123362,-0.005671204,-0.000097633,0.000077685,-0.000071201
1776086967.536674738,-2.602574686,0.168931972,9.445484395,-0.023671964,0.000957488,0.003630616,0.005719176,-0.001225694,-0.021346675,0.034502099,0.022282962,-0.017557406,0.991886104,0.000042481,0.127079557,-0.003569314,0.009957649,0.006123362,-0.005671204,-0.000097633,0.000077685,-0.000071201
1776086967.542495728,-2.597762881,0.149684755,9.503226047,-0.031128816,0.002022753,0.010022204,0.005918029,-0.001093215,-0.021448409,0.033820486,0.023235020,-0.017396786,0.991887946,-0.000060793,0.127066568,-0.003519418,0.009957649,0.006123362,-0.005671204,-0.000097633,0.000077685,-0.000071201
1776086967.546679258,-2.607386490,0.142467048,9.541720482,-0.028998286,0.002022753,0.012152733,0.006058576,-0.000994682,-0.021520535,0.033370496,0.023869731,-0.017084056,0.991889150,-0.000139405,0.127058356,-0.003474009,0.009957649,0.006123362,-0.005671204,-0.000097633,0.000077685,-0.000071201
1776086967.552480698,-2.626633707,0.147278853,9.556155895,-0.023671964,0.005218546,0.007891675,0.006250238,-0.000853640,-0.021617898,0.032703208,0.024753702,-0.016480863,0.991890209,-0.000238067,0.127051526,-0.003415479,0.009957649,0.006123362,-0.005671204,-0.000097633,0.000077685,-0.000071201
1776086967.556798697,-2.621821903,0.168931972,9.551344091,-0.020476170,0.007349075,0.008956939,0.006390325,-0.000745198,-0.021688033,0.032182007,0.025473997,-0.016004111,0.991890250,-0.000302795,0.127052113,-0.003376507,0.009957649,0.006123362,-0.005671204,-0.000097633,0.000077685,-0.000071201
1776086967.562484264,-2.588139273,0.178555581,9.517661460,-0.013019320,0.008414339,0.005761147,0.006571573,-0.000597397,-0.021777621,0.031575138,0.026517748,-0.015510105,0.991889713,-0.000373374,0.127057338,-0.003330121,0.009957649,0.006123362,-0.005671204,-0.000097633,0.000077685,-0.000071201
1776086967.566671848,-2.566486153,0.183367385,9.496008341,-0.010888791,0.011610133,0.012152733,0.006703036,-0.000484674,-0.021842105,0.031211901,0.027318948,-0.015287681,0.991888762,-0.000414962,0.127065579,-0.003293915,0.009957649,0.006123362,-0.005671204,-0.000097633,0.000077685,-0.000071201
1776086967.572487831,-2.549644838,0.164120168,9.479167026,-0.005562468,0.006283810,0.011087468,0.006883331,-0.000322663,-0.021930517,0.030788093,0.028393320,-0.015115315,0.991887860,-0.000460994,0.127073918,-0.003237325,0.009957649,0.006123362,-0.005671204,-0.000097633,0.000077685,-0.000071201
1776086967.576776981,-2.542427131,0.128031635,9.450296199,-0.005562468,0.002022753,0.014283262,0.007014767,-0.000199432,-0.021995307,0.030499611,0.029068474,-0.015095901,0.991888508,-0.000489019,0.127069853,-0.003194046,0.009957649,0.006123362,-0.005671204,-0.000097633,0.000077685,-0.000071201
1776086967.582496166,-2.573703860,0.137655244,9.438266689,-0.010888791,-0.000107776,0.018544320,0.004315932,0.002621192,-0.021200451,0.017165390,0.041510359,-0.012470724,0.991847928,0.000179620,0.127380353,-0.003449870,0.009953904,0.006121837,-0.005669913,-0.000069840,0.000052520,-0.000067595
1776086967.586767197,-2.602574686,0.125625733,9.469543417,-0.014084584,-0.006499363,0.022805378,0.004388267,0.002799703,-0.021253666,0.016707148,0.042081028,-0.012448392,0.991850692,0.000139185,0.127360543,-0.003387969,0.009953904,0.006121837,-0.005669913,-0.000069840,0.000052520,-0.000067595
1776086967.592358112,-2.588139273,0.156902461,9.450296199,-0.019410906,-0.009695157,0.030262228,0.004479902,0.003037229,-0.021323063,0.016072619,0.042887400,-0.012376594,0.991856062,0.000076481,0.127321358,-0.003289177,0.009953904,0.006121837,-0.005669913,-0.000069840,0.000052520,-0.000067595
1776086967.596695900,-2.556862544,0.154496559,9.435860786,-0.023671964,-0.012890950,0.034523286,0.004548715,0.003224765,-0.021376837,0.015654884,0.043578853,-0.012416757,0.991861141,0.000019114,0.127284112,-0.003198601,0.009953904,0.006121837,-0.005669913,-0.000069840,0.000052520,-0.000067595
1776086967.602484226,-2.525585816,0.132843440,9.423831276,-0.025802493,-0.013956215,0.031327493,0.004638148,0.003479502,-0.021449212,0.015246279,0.044438529,-0.012590291,0.991868688,-0.000066434,0.127228322,-0.003075030,0.009953904,0.006121837,-0.005669913,-0.000069840,0.000052520,-0.000067595
1776086967.606697559,-2.482279577,0.128031635,9.440672591,-0.032194078,-0.013956215,0.031327493,0.004702077,0.003667945,-0.021502588,0.015099550,0.045012469,-0.012746488,0.991874296,-0.000138039,0.127186625,-0.002987280,0.009953904,0.006121837,-0.005669913,-0.000069840,0.000052520,-0.000067595
1776086967.612492561,-2.465438262,0.103972614,9.471949319,-0.035389874,-0.022478329,0.030262228,0.004789560,0.003930866,-0.021576813,0.015092955,0.045728014,-0.012870443,0.991883548,-0.000250536,0.127117066,-0.002866351,0.009953904,0.006121837,-0.005669913,-0.000069840,0.000052520,-0.000067595
1776086967.616714001,-2.472655969,0.099160809,9.493602439,-0.041781463,-0.033130974,0.027066436,0.004853351,0.004124889,-0.021631118,0.015129666,0.046194907,-0.012857754,0.991892822,-0.000343151,0.127046349,-0.002781427,0.009953904,0.006121837,-0.005669913,-0.000069840,0.000052520,-0.000067595
1776086967.622494698,-2.525585816,0.089537201,9.565779504,-0.041781463,-0.046979412,0.017479055,0.004940623,0.004393699,-0.021704509,0.015064578,0.046807722,-0.012534244,0.991909929,-0.000481582,0.126914404,-0.002682275,0.009953904,0.006121837,-0.005669913,-0.000069840,0.000052520,-0.000067595
1776086967.626726627,-2.525585816,0.055854566,9.594650330,-0.034324609,-0.060827851,0.011087468,0.005004135,0.004592559,-0.021756555,0.014951243,0.047172775,-0.012062237,0.991926099,-0.000577324,0.126788711,-0.002627443,0.009953904,0.006121837,-0.005669913,-0.000069840,0.000052520,-0.000067595
1776086967.632590055,-2.508744501,0.036607348,9.570591308,-0.025802493,-0.070415236,0.011087468,0.005091417,0.004870215,-0.021825360,0.014820344,0.047534989,-0.011406893,0.991952798,-0.000688020,0.126580411,-0.002563715,0.009953904,0.006121837,-0.005669913,-0.000069840,0.000052520,-0.000067595
1776086967.636727810,-2.491903186,0.017360131,9.529690971,-0.015149849,-0.081067882,0.007891675,0.005152589,0.005067275,-0.021871907,0.014747454,0.047714891,-0.011091903,0.991974257,-0.000746934,0.126412589,-0.002524519,0.009953904,0.006121837,-0.005669913,-0.000069840,0.000052520,-0.000067595
1776086967.642503500,-2.453408604,0.007736522,9.508037852,-0.008758262,-0.088524729,0.002565354,0.005237701,0.005343361,-0.021935321,0.014724890,0.047887851,-0.010867042,0.992007443,-0.000806377,0.126152317,-0.002485104,0.009953904,0.006121837,-0.005669913,-0.000069840,0.000052520,-0.000067595
1776086967.646493435,-2.475061871,-0.016322499,9.536908678,-0.001301410,-0.094916321,0.000434823,0.005296462,0.005534538,-0.021978358,0.014729806,0.047942043,-0.010706034,0.992032059,-0.000834711,0.125958768,-0.002466986,0.009953904,0.006121837,-0.005669913,-0.000069840,0.000052520,-0.000067595
1776086967.652492762,-2.487091382,-0.016322499,9.508037852,0.002959648,-0.097046845,0.006826410,0.005384450,0.005822195,-0.022041785,0.014602885,0.047954340,-0.010438621,0.992070636,-0.000859105,0.125655018,-0.002435607,0.009953904,0.006121837,-0.005669913,-0.000069840,0.000052520,-0.000067595
1776086967.656506777,-2.496714990,0.002924718,9.469543417,-0.002366675,-0.090655260,0.018544320,0.005442713,0.006014780,-0.022083568,0.014426553,0.048002080,-0.010379970,0.992095900,-0.000874194,0.125456039,-0.002396452,0.009953904,0.006121837,-0.005669913,-0.000069840,0.000052520,-0.000067595
1776086967.662497520,-2.470250066,0.029389642,9.447890297,-0.003431940,-0.085328937,0.024935907,0.005528265,0.006302977,-0.022146052,0.014134975,0.048211865,-0.010479993,0.992131387,-0.000902765,0.125176519,-0.002309921,0.009953904,0.006121837,-0.005669913,-0.000069840,0.000052520,-0.000067595
1776086967.666784048,-2.400478757,0.026983740,9.411801765,-0.003431940,-0.074676290,0.036653817,0.005588738,0.006510070,-0.022191495,0.014080194,0.048413146,-0.010722825,0.992154627,-0.000921872,0.124993518,-0.002228624,0.009953904,0.006121837,-0.005669913,-0.000069840,0.000052520,-0.000067595
1776086967.672502279,-2.313866279,0.048636859,9.421425373,-0.000236146,-0.060827851,0.037719078,0.005670161,0.006787828,-0.022254263,0.014398221,0.048734931,-0.011230973,0.992181239,-0.000940466,0.124784146,-0.002102647,0.009953904,0.006121837,-0.005669913,-0.000069840,0.000052520,-0.000067595
1776086967.676572323,-2.277777746,0.019766033,9.375713232,-0.001301410,-0.046979412,0.037719078,0.005729658,0.006986615,-0.022300980,0.014838615,0.048948137,-0.011725501,0.992196636,-0.000951355,0.124663075,-0.002012202,0.009953904,0.006121837,-0.005669913,-0.000069840,0.000052520,-0.000067595
1776086967.682495832,-2.248906920,-0.011510695,9.370901428,-0.008758262,-0.034196243,0.039849609,0.008490883,0.001839441,-0.019048067,0.029725911,0.023264203,0.000582813,0.992197083,0.000102326,0.124670251,-0.001505256,0.009947838,0.006120717,-0.005672811,-0.000093351,0.000106256,-0.000103981
1776086967.686738729,-2.258530529,0.010142424,9.385336841,-0.016215112,-0.024608860,0.036653817,0.008618311,0.001938079,-0.019046938,0.030340781,0.023231350,-0.000050657,0.992206616,0.000066607,0.124595539,-0.001406873,0.009947838,0.006120717,-0.005672811,-0.000093351,0.000106256,-0.000103981
1776086967.692496538,-2.260936431,0.031795544,9.409395863,-0.023671964,-0.019282537,0.034523286,0.008795367,0.002072089,-0.019049370,0.031160375,0.023317729,-0.000794280,0.992216842,-0.000004090,0.124515480,-0.001278295,0.009947838,0.006120717,-0.005672811,-0.000093351,0.000106256,-0.000103981
1776086967.696690083,-2.234471507,0.072695881,9.435860786,-0.031128816,-0.013956215,0.031327493,0.008927441,0.002170290,-0.019053648,0.031828790,0.023516313,-0.001245700,0.992222875,-0.000071775,0.124468270,-0.001188242,0.009947838,0.006120717,-0.005672811,-0.000093351,0.000106256,-0.000103981
1776086967.702485561,-2.227253800,0.084725396,9.447890297,-0.028998286,-0.012890950,0.014283262,0.009114917,0.002307848,-0.019062432,0.032868586,0.023954453,-0.001785624,0.992230002,-0.000176611,0.124412218,-0.001091926,0.009947838,0.006120717,-0.005672811,-0.000093351,0.000106256,-0.000103981
1776086967.706743240,-2.208006583,0.072695881,9.474355221,-0.028998286,-0.008629892,0.002565354,0.009256640,0.002410536,-0.019070739,0.033704312,0.024282335,-0.002116776,0.992234486,-0.000255183,0.124376655,-0.001051827,0.009947838,0.006120717,-0.005672811,-0.000093351,0.000106256,-0.000103981
1776086967.712486744,-2.195977072,0.051042761,9.515255558,-0.024737228,-0.006499363,-0.010217823,0.009453833,0.002551026,-0.019083705,0.034961880,0.024639173,-0.002398103,0.992239347,-0.000359469,0.124337771,-0.001033406,0.009947838,0.006120717,-0.005672811,-0.000093351,0.000106256,-0.000103981
1776086967.716642380,-2.246501018,0.022171935,9.580214917,-0.013019320,-0.007564628,-0.021935731,0.009600959,0.002653747,-0.019093609,0.035846120,0.024797807,-0.002368638,0.992242699,-0.000421615,0.124310708,-0.001047399,0.009947838,0.006120717,-0.005672811,-0.000093351,0.000106256,-0.000103981
1776086967.722499132,-2.282589550,0.046230957,9.582620819,-0.005562468,-0.007564628,-0.028327320,0.009813959,0.002799620,-0.019106617,0.036890578,0.025015799,-0.002073311,0.992247593,-0.000484642,0.124270978,-0.001096919,0.009947838,0.006120717,-0.005672811,-0.000093351,0.000106256,-0.000103981
1776086967.726913691,-2.345143007,0.041419153,9.599462134,0.000829119,-0.004368834,-0.036849435,0.009978105,0.002910519,-0.019115069,0.037475107,0.025226645,-0.001755883,0.992250828,-0.000519025,0.124244505,-0.001152477,0.009947838,0.006120717,-0.005672811,-0.000093351,0.000106256,-0.000103981
1776086967.732670784,-2.383637441,0.041419153,9.597056232,0.008285969,-0.005434100,-0.040045228,0.010195255,0.003056518,-0.019123664,0.037962166,0.025492786,-0.001229910,0.992254648,-0.000546179,0.124212991,-0.001244145,0.009947838,0.006120717,-0.005672811,-0.000093351,0.000106256,-0.000103981
1776086967.736737728,-2.400478757,0.036607348,9.548938188,0.021069143,-0.005434100,-0.047502082,0.010350067,0.003160560,-0.019128056,0.038169977,0.025671987,-0.000930165,0.992257472,-0.000546289,0.124189622,-0.001322204,0.009947838,0.006120717,-0.005672811,-0.000093351,0.000106256,-0.000103981
1776086967.742600441,-2.436567289,0.012548327,9.498414243,0.027460732,-0.004368834,-0.044306282,0.010574064,0.003311573,-0.019132952,0.038244012,0.025844560,-0.000739938,0.992261343,-0.000519334,0.124157441,-0.001444418,0.009947838,0.006120717,-0.005672811,-0.000093351,0.000106256,-0.000103981
1776086967.746594667,-2.424537778,0.017360131,9.426237178,0.027460732,-0.008629892,-0.044306282,0.010726702,0.003414958,-0.019136099,0.038185440,0.025922533,-0.000835939,0.992264376,-0.000494245,0.124132342,-0.001525305,0.009947838,0.006120717,-0.005672811,-0.000093351,0.000106256,-0.000103981
1776086967.752490282,-2.463032213,0.026983740,9.385336841,0.022134408,-0.022478329,-0.051763136,0.010951088,0.003568248,-0.019142341,0.037934096,0.026078987,-0.001281573,0.992272127,-0.000466408,0.124068813,-0.001654616,0.009947838,0.006120717,-0.005672811,-0.000093351,0.000106256,-0.000103981
1776086967.756903410,-2.549644838,0.014954229,9.440672591,0.014677558,-0.035261504,-0.048567344,0.011117493,0.003683589,-0.019148515,0.037479606,0.026192388,-0.001516378,0.992281545,-0.000460197,0.123992123,-0.001754312,0.009947838,0.006120717,-0.005672811,-0.000093351,0.000106256,-0.000103981
1776086967.762132406,-2.592951077,0.017360131,9.435860786,0.011481764,-0.038457297,-0.042175759,0.011311260,0.003820843,-0.019156619,0.036632817,0.026304901,-0.001583149,0.992295288,-0.000465139,0.123880555,-0.001858267,0.009947838,0.006120717,-0.005672811,-0.000093351,0.000106256,-0.000103981
1776086967.766808987,-2.592951077,0.070289979,9.421425373,0.001894383,-0.037392035,-0.031523112,0.011480529,0.003944404,-0.019164207,0.035757349,0.026537755,-0.001661976,0.992307900,-0.000481925,0.123778337,-0.001929613,0.009947838,0.006120717,-0.005672811,-0.000093351,0.000106256,-0.000103981
1776086967.772528887,-2.583327468,0.058260468,9.445484395,-0.005562468,-0.039522566,-0.023000997,0.011682051,0.004097362,-0.019173933,0.034706238,0.026944952,-0.001738963,0.992323534,-0.000523250,0.123651861,-0.001986650,0.009947838,0.006120717,-0.005672811,-0.000093351,0.000106256,-0.000103981
1776086967.776621103,-2.542427131,0.065478174,9.438266689,-0.008758262,-0.036326766,-0.012348350,0.011822746,0.004208208,-0.019181146,0.034055676,0.027229275,-0.001786141,0.992334606,-0.000561202,0.123562487,-0.002006643,0.009947838,0.006120717,-0.005672811,-0.000093351,0.000106256,-0.000103981
1776086967.782506943,-2.482279577,0.058260468,9.479167026,-0.010888791,-0.028869918,-0.005956765,0.009455930,-0.000457965,-0.012376375,0.024992831,0.005962157,0.023864444,0.992408128,0.000202825,0.122976655,-0.001675840,0.009943061,0.006123610,-0.005675357,-0.000059744,0.000152396,-0.000157796
1776086967.786880493,-2.477467773,0.065478174,9.527285069,-0.007692997,-0.021413067,-0.004891500,0.009564492,-0.000431404,-0.012271694,0.024651856,0.006184209,0.024005447,0.992416542,0.000161037,0.122908875,-0.001670137,0.009943061,0.006123610,-0.005675357,-0.000059744,0.000152396,-0.000157796
1776086967.792491436,-2.503932697,0.067884077,9.539314580,-0.006627733,-0.010760421,0.001500089,0.009701516,-0.000395816,-0.012135993,0.024189865,0.006501005,0.024364708,0.992424224,0.000114686,0.122847115,-0.001653169,0.009943061,0.006123610,-0.005675357,-0.000059744,0.000152396,-0.000157796
1776086967.796792269,-2.535209425,0.058260468,9.558561797,-0.002366675,-0.003303570,0.002565354,0.009804562,-0.000367362,-0.012030407,0.023729264,0.006730870,0.024735549,0.992427729,0.000085858,0.122819088,-0.001632907,0.009943061,0.006123610,-0.005675357,-0.000059744,0.000152396,-0.000157796
1776086967.802491188,-2.506338599,0.103972614,9.536908678,0.004024912,0.005218546,0.003630616,0.009938026,-0.000327836,-0.011888055,0.023109272,0.007140431,0.025221901,0.992429580,0.000063131,0.122804519,-0.001604909,0.009943061,0.006123610,-0.005675357,-0.000059744,0.000152396,-0.000157796
1776086967.806837797,-2.501526795,0.123219831,9.512849656,0.000829119,0.012675397,0.011087468,0.010037549,-0.000295812,-0.011777868,0.022684126,0.007594536,0.025478612,0.992428872,0.000050408,0.122810633,-0.001574789,0.009943061,0.006123610,-0.005675357,-0.000059744,0.000152396,-0.000157796
1776086967.812307358,-2.477467773,0.108784418,9.510443754,0.004024912,0.018001720,0.010022204,0.010160327,-0.000252673,-0.011637872,0.022210768,0.008179830,0.025712216,0.992425846,0.000035500,0.122835673,-0.001528214,0.009943061,0.006123610,-0.005675357,-0.000059744,0.000152396,-0.000157796
1776086967.816793919,-2.463032213,0.084725396,9.522473265,0.001894383,0.020132247,0.015348526,0.010259311,-0.000215090,-0.011522083,0.021913757,0.008573726,0.025903760,0.992422342,0.000025057,0.122864511,-0.001485412,0.009943061,0.006123610,-0.005675357,-0.000059744,0.000152396,-0.000157796
1776086967.822559834,-2.477467773,0.070289979,9.548938188,0.004024912,0.023328042,0.019609584,0.010384655,-0.000164514,-0.011371704,0.021563837,0.008969218,0.026257619,0.992416910,0.000013345,0.122909191,-0.001416690,0.009943061,0.006123610,-0.005675357,-0.000059744,0.000152396,-0.000157796
1776086967.826737881,-2.487091382,0.072695881,9.551344091,0.008285969,0.024393305,0.018544320,0.010474155,-0.000126495,-0.011261315,0.021279205,0.009230335,0.026584815,0.992412427,0.000011900,0.122945973,-0.001364401,0.009943061,0.006123610,-0.005675357,-0.000059744,0.000152396,-0.000157796
1776086967.832523108,-2.515962208,0.055854566,9.563373601,0.005090177,0.023328042,0.022805378,0.010595853,-0.000072173,-0.011106009,0.020792982,0.009549247,0.027105616,0.992406219,0.000011997,0.122996902,-0.001287600,0.009943061,0.006123610,-0.005675357,-0.000059744,0.000152396,-0.000157796
1776086967.836676836,-2.501526795,0.094349005,9.551344091,0.008285969,0.024393305,0.020674849,0.010681443,-0.000031940,-0.010992628,0.020417907,0.009822612,0.027486887,0.992401759,0.000012339,0.123033467,-0.001230262,0.009943061,0.006123610,-0.005675357,-0.000059744,0.000152396,-0.000157796
1776086967.842574358,-2.482279577,0.089537201,9.517661460,0.010416498,0.024393305,0.022805378,0.010800493,0.000027419,-0.010829384,0.019955184,0.010307668,0.027873300,0.992395226,0.000020620,0.123086932,-0.001149820,0.009943061,0.006123610,-0.005675357,-0.000059744,0.000152396,-0.000157796
1776086967.846704483,-2.463032213,0.075101783,9.496008341,0.011481764,0.021197513,0.022805378,0.010882349,0.000070607,-0.010713974,0.019682961,0.010606099,0.028013724,0.992391054,0.000029961,0.123121094,-0.001091707,0.009943061,0.006123610,-0.005675357,-0.000059744,0.000152396,-0.000157796
1776086967.852502346,-2.429349583,0.065478174,9.486384732,0.011481764,0.015871190,0.020674849,0.010995738,0.000133104,-0.010551346,0.019431316,0.010952236,0.028085491,0.992386707,0.000044212,0.123156791,-0.001013385,0.009943061,0.006123610,-0.005675357,-0.000059744,0.000152396,-0.000157796
1776086967.856818914,-2.446190898,0.041419153,9.488790634,0.007220706,0.009479604,0.023870643,0.011079281,0.000180776,-0.010430049,0.019276421,0.011136007,0.028114955,0.992385025,0.000050387,0.123170822,-0.000953366,0.009943061,0.006123610,-0.005675357,-0.000059744,0.000152396,-0.000157796
1776086967.862213612,-2.479873675,0.041419153,9.493602439,0.007220706,0.000957488,0.021740112,0.011182404,0.000241293,-0.010278137,0.018955035,0.011299744,0.028203985,0.992385396,0.000052560,0.123168402,-0.000876224,0.009943061,0.006123610,-0.005675357,-0.000059744,0.000152396,-0.000157796
1776086967.866750002,-2.513556305,0.029389642,9.486384732,0.006155441,-0.007564628,0.021740112,0.011267435,0.000292803,-0.010149951,0.018533313,0.011409640,0.028310898,0.992388082,0.000052873,0.123147185,-0.000813606,0.009943061,0.006123610,-0.005675357,-0.000059744,0.000152396,-0.000157796
1776086967.872337341,-2.496714990,0.051042761,9.450296199,0.008285969,-0.016086744,0.015348526,0.011369310,0.000357003,-0.009991696,0.017933222,0.011570912,0.028336702,0.992394309,0.000053618,0.123097425,-0.000745525,0.009943061,0.006123610,-0.005675357,-0.000059744,0.000152396,-0.000157796
1776086967.876648664,-2.458220409,0.055854566,9.414207667,-0.000236146,-0.017152008,0.019609584,0.011445787,0.000407280,-0.009869873,0.017543773,0.011752251,0.028176549,0.992400380,0.000047065,0.123048778,-0.000694424,0.009943061,0.006123610,-0.005675357,-0.000059744,0.000152396,-0.000157796
1776086967.882491827,-2.407696463,0.058260468,9.404584058,-0.005562468,-0.019282537,0.017479055,0.011335634,0.005727187,-0.011644286,0.014707711,0.035452301,0.019988481,0.992335873,-0.000326641,0.123553918,-0.001959217,0.009944525,0.006120221,-0.005667156,-0.000057653,0.000099271,-0.000137476
1776086967.887776852,-2.378825637,0.051042761,9.406989960,-0.010888791,-0.019282537,0.016413791,0.011413268,0.005915362,-0.011539831,0.014671448,0.035758288,0.019540134,0.992344263,-0.000367036,0.123487418,-0.001893964,0.009944525,0.006120221,-0.005667156,-0.000057653,0.000099271,-0.000137476
1776086967.892288923,-2.364390224,0.031795544,9.440672591,-0.018345643,-0.017152008,0.016413791,0.011479645,0.006077168,-0.011452404,0.014750118,0.035963126,0.019212404,0.992351113,-0.000415976,0.123433055,-0.001837667,0.009944525,0.006120221,-0.005667156,-0.000057653,0.000099271,-0.000137476
1776086967.896818161,-2.369202028,0.031795544,9.474355221,-0.022606701,-0.012890950,0.012152733,0.011546753,0.006240431,-0.011365809,0.014883208,0.036130079,0.019026039,0.992357072,-0.000478852,0.123385688,-0.001784309,0.009944525,0.006120221,-0.005667156,-0.000057653,0.000099271,-0.000137476
1776086967.902891636,-2.393261050,0.036607348,9.556155895,-0.023671964,-0.007564628,0.012152733,0.011637672,0.006460623,-0.011249916,0.015056689,0.036379134,0.019137560,0.992363238,-0.000571963,0.123336627,-0.001718189,0.009944525,0.006120221,-0.005667156,-0.000057653,0.000099271,-0.000137476
1776086967.906836987,-2.361984322,0.077507690,9.585026721,-0.017280377,-0.003303570,0.008956939,0.011697428,0.006604656,-0.011173858,0.015235143,0.036635137,0.019418033,0.992366068,-0.000627607,0.123314130,-0.001679018,0.009944525,0.006120221,-0.005667156,-0.000057653,0.000099271,-0.000137476
1776086967.912499189,-2.340331202,0.077507690,9.572997210,-0.010888791,-0.002238305,0.008956939,0.011784855,0.006813476,-0.011062743,0.015645741,0.037124138,0.019829878,0.992369195,-0.000690053,0.123289290,-0.001629527,0.009944525,0.006120221,-0.005667156,-0.000057653,0.000099271,-0.000137476
1776086967.916778326,-2.325895789,0.058260468,9.585026721,0.001894383,-0.003303570,-0.001695707,0.011852626,0.006973042,-0.010977263,0.016029170,0.037454392,0.020122298,0.992371551,-0.000718295,0.123270476,-0.001605963,0.009944525,0.006120221,-0.005667156,-0.000057653,0.000099271,-0.000137476
1776086967.922493458,-2.311460376,0.039013250,9.585026721,0.010416498,-0.003303570,-0.002760969,0.011945941,0.007188047,-0.010861107,0.016626304,0.037786165,0.020526218,0.992374878,-0.000727872,0.123243776,-0.001594857,0.009944525,0.006120221,-0.005667156,-0.000057653,0.000099271,-0.000137476
1776086967.926707983,-2.349954811,0.036607348,9.604273938,0.020003881,-0.004368834,-0.005956765,0.012016854,0.007347715,-0.010773862,0.017025527,0.037984463,0.020875915,0.992377476,-0.000716554,0.123222940,-0.001593473,0.009944525,0.006120221,-0.005667156,-0.000057653,0.000099271,-0.000137476
1776086967.932492018,-2.400478757,0.046230957,9.580214917,0.032787055,-0.006499363,-0.012348350,0.012116172,0.007568254,-0.010651584,0.017316634,0.038273337,0.021405317,0.992381610,-0.000670636,0.123189696,-0.001609315,0.009944525,0.006120221,-0.005667156,-0.000057653,0.000099271,-0.000137476
1776086967.936852217,-2.443784996,0.046230957,9.539314580,0.038113374,-0.005434100,-0.008087292,0.012191642,0.007735646,-0.010557573,0.017300898,0.038508215,0.021717083,0.992384875,-0.000616719,0.123163450,-0.001625993,0.009944525,0.006120221,-0.005667156,-0.000057653,0.000099271,-0.000137476
1776086967.942499876,-2.438973191,0.065478174,9.474355221,0.040243905,-0.004368834,-0.003826234,0.012288781,0.007954115,-0.010434525,0.017098740,0.038858087,0.021857577,0.992388754,-0.000534947,0.123132428,-0.001636952,0.009944525,0.006120221,-0.005667156,-0.000057653,0.000099271,-0.000137476
1776086967.946606159,-2.410102365,0.070289979,9.404584058,0.038113374,-0.003303570,0.001500089,0.012358687,0.008114290,-0.010345148,0.016949715,0.039156620,0.021674555,0.992391316,-0.000474276,0.123112048,-0.001635155,0.009944525,0.006120221,-0.005667156,-0.000057653,0.000099271,-0.000137476
1776086967.952492476,-2.383637441,0.063072272,9.361277819,0.027460732,0.002022753,0.014283262,0.012458048,0.008345990,-0.010219403,0.016810358,0.039568210,0.021049754,0.992393860,-0.000402678,0.123092210,-0.001603820,0.009944525,0.006120221,-0.005667156,-0.000057653,0.000099271,-0.000137476
1776086967.956691742,-2.340331202,0.031795544,9.339624700,0.016808085,0.003088017,0.022805378,0.012528657,0.008512587,-0.010132298,0.016818791,0.039777460,0.020436091,0.992394872,-0.000371033,0.123084762,-0.001556519,0.009944525,0.006120221,-0.005667156,-0.000057653,0.000099271,-0.000137476
1776086967.962517262,-2.330707594,0.017360131,9.349248308,0.005090177,0.004153281,0.027066436,0.012627076,0.008744759,-0.010015935,0.016970181,0.039931355,0.019513295,0.992395904,-0.000357169,0.123077565,-0.001468415,0.009944525,0.006120221,-0.005667156,-0.000057653,0.000099271,-0.000137476
1776086967.967197895,-2.335519398,0.012548327,9.397366352,-0.007692997,0.005218546,0.030262228,0.012706894,0.008931849,-0.009926036,0.017135309,0.040010529,0.018900191,0.992396422,-0.000373404,0.123074300,-0.001385439,0.009944525,0.006120221,-0.005667156,-0.000057653,0.000099271,-0.000137476
1776086967.972278595,-2.340331202,-0.001887086,9.464731612,-0.013019320,0.005218546,0.028131701,0.012794530,0.009135232,-0.009830962,0.017362153,0.040050601,0.018525186,0.992396802,-0.000413686,0.123072131,-0.001291197,0.009944525,0.006120221,-0.005667156,-0.000057653,0.000099271,-0.000137476
1776086967.976746321,-2.301836768,0.034201446,9.515255558,-0.014084584,0.010544868,0.023870643,0.012872852,0.009314360,-0.009748404,0.017699378,0.040137123,0.018432349,0.992396383,-0.000457063,0.123076132,-0.001214534,0.009944525,0.006120221,-0.005667156,-0.000057653,0.000099271,-0.000137476
1776086967.982520103,-2.270560039,0.034201446,9.560967699,-0.004497204,0.013740662,0.018544320,0.007560496,0.004239805,-0.009442165,-0.003111362,0.018399326,0.019134205,0.992385772,0.000651898,0.123166611,-0.000201451,0.009937822,0.006120168,-0.005673694,-0.000007550,0.000148830,-0.000126176
1776086967.986696243,-2.251312822,0.031795544,9.565779504,0.009351235,0.018001720,0.012152733,0.007548812,0.004316721,-0.009361945,-0.002483901,0.018436416,0.019283795,0.992383282,0.000641745,0.123186791,-0.000155945,0.009937822,0.006120168,-0.005673694,-0.000007550,0.000148830,-0.000126176
1776086967.992498159,-2.220036094,0.010142424,9.604273938,0.018938616,0.025458571,0.006826410,0.007537446,0.004423627,-0.009249211,-0.001434207,0.018415464,0.019577426,0.992377701,0.000659283,0.123231699,-0.000113766,0.009937822,0.006120168,-0.005673694,-0.000007550,0.000148830,-0.000126176
1776086967.996758461,-2.227253800,0.031795544,9.640362471,0.031721789,0.031850159,0.000434823,0.007533175,0.004502042,-0.009165044,-0.000570838,0.018396799,0.019934471,0.992371764,0.000694269,0.123279318,-0.000098106,0.009937822,0.006120168,-0.005673694,-0.000007550,0.000148830,-0.000126176
1776086968.002495289,-2.248906920,0.063072272,9.640362471,0.039178640,0.040372275,-0.001695707,0.007533106,0.004607920,-0.009048958,0.000546608,0.018514876,0.020535939,0.992361103,0.000768682,0.123364670,-0.000092713,0.009937822,0.006120168,-0.005673694,-0.000007550,0.000148830,-0.000126176
1776086968.006792784,-2.292213159,0.065478174,9.633144764,0.046635494,0.044633329,-0.004891500,0.007536969,0.004687821,-0.008959696,0.001251248,0.018669757,0.021005673,0.992351399,0.000839622,0.123442239,-0.000096317,0.009937822,0.006120168,-0.005673694,-0.000007550,0.000148830,-0.000126176
1776086968.013763189,-2.304242670,0.099160809,9.570591308,0.055157609,0.046763860,-0.008087292,0.007548881,0.004819205,-0.008811279,0.002166667,0.019028128,0.021579149,0.992334232,0.000980942,0.123579109,-0.000116643,0.009937822,0.006120168,-0.005673694,-0.000007550,0.000148830,-0.000126176
1776086968.016654491,-2.316272181,0.108784418,9.517661460,0.055157609,0.046763860,-0.010217823,0.007555591,0.004874522,-0.008748765,0.002475092,0.019236171,0.021663823,0.992326902,0.001045198,0.123637412,-0.000129655,0.009937822,0.006120168,-0.005673694,-0.000007550,0.000148830,-0.000126176
1776086968.022495985,-2.316272181,0.108784418,9.469543417,0.050896548,0.047829129,-0.007022027,0.007571599,0.004988162,-0.008622526,0.003005530,0.019671492,0.021557464,0.992311885,0.001169037,0.123756746,-0.000153629,0.009937822,0.006120168,-0.005673694,-0.000007550,0.000148830,-0.000126176
1776086968.026783228,-2.321083985,0.089537201,9.450296199,0.048766017,0.043568067,-0.007022027,0.007585236,0.005073080,-0.008530567,0.003356445,0.019943184,0.021341859,0.992301278,0.001253551,0.123840924,-0.000166981,0.009937822,0.006120168,-0.005673694,-0.000007550,0.000148830,-0.000126176
1776086968.032312155,-2.349954811,0.075101783,9.409395863,0.042374432,0.037176482,-0.009152558,0.007604711,0.005184029,-0.008413721,0.003688001,0.020190768,0.020925295,0.992289418,0.001350487,0.123934874,-0.000185682,0.009937822,0.006120168,-0.005673694,-0.000007550,0.000148830,-0.000126176
1776086968.036732197,-2.364390224,0.075101783,9.375713232,0.031721789,0.032915421,-0.010217823,0.007621315,0.005273631,-0.008322267,0.003825213,0.020352452,0.020455977,0.992281409,0.001408852,0.123998308,-0.000201818,0.009937822,0.006120168,-0.005673694,-0.000007550,0.000148830,-0.000126176
1776086968.042496920,-2.383637441,0.094349005,9.404584058,0.013612293,0.027589099,-0.009152558,0.007643624,0.005391714,-0.008206078,0.003914482,0.020615184,0.019854496,0.992272726,0.001443840,0.124067337,-0.000217743,0.009937822,0.006120168,-0.005673694,-0.000007550,0.000148830,-0.000126176
1776086968.046816587,-2.374013833,0.094349005,9.394960450,0.006155441,0.021197513,-0.016609408,0.007660663,0.005481280,-0.008121188,0.003974814,0.020853834,0.019449309,0.992267826,0.001441801,0.124106522,-0.000233118,0.009937822,0.006120168,-0.005673694,-0.000007550,0.000148830,-0.000126176
1776086968.053778172,-2.364390224,0.072695881,9.397366352,-0.001301410,0.019066984,-0.018739939,0.007688900,0.005627549,-0.007988206,0.004137353,0.021167932,0.018755207,0.992261798,0.001410687,0.124154984,-0.000271253,0.009937822,0.006120168,-0.005673694,-0.000007550,0.000148830,-0.000126176
1776086968.056656837,-2.342737105,0.067884077,9.431048982,-0.002366675,0.016936455,-0.027262051,0.007700989,0.005688619,-0.007934573,0.004261923,0.021260820,0.018507327,0.992259692,0.001390783,0.124171993,-0.000293872,0.009937822,0.006120168,-0.005673694,-0.000007550,0.000148830,-0.000126176
1776086968.061679602,-2.347548909,0.034201446,9.498414243,0.001894383,0.016936455,-0.029392581,0.007723208,0.005795578,-0.007842110,0.004585400,0.021329258,0.018310056,0.992256335,0.001358373,0.124199032,-0.000347113,0.009937822,0.006120168,-0.005673694,-0.000007550,0.000148830,-0.000126176
1776086968.066751003,-2.361984322,0.031795544,9.517661460,0.002959648,0.018001720,-0.028327320,0.007747315,0.005903698,-0.007749188,0.004921627,0.021309493,0.018335491,0.992252764,0.001332184,0.124227673,-0.000403047,0.009937822,0.006120168,-0.005673694,-0.000007550,0.000148830,-0.000126176
1776086968.072497606,-2.402884659,0.055854566,9.551344091,0.004024912,0.022262778,-0.028327320,0.007776371,0.006026279,-0.007643202,0.005190675,0.021352776,0.018551030,0.992247758,0.001305737,0.124267716,-0.000465279,0.009937822,0.006120168,-0.005673694,-0.000007550,0.000148830,-0.000126176
1776086968.076789856,-2.434161387,0.084725396,9.560967699,0.005090177,0.023328042,-0.031523112,0.007798816,0.006118248,-0.007562955,0.005267636,0.021500563,0.018840558,0.992243300,0.001287829,0.124303299,-0.000515440,0.009937822,0.006120168,-0.005673694,-0.000007550,0.000148830,-0.000126176
1776086968.082496405,-2.443784996,0.113596222,9.541720482,0.006155441,0.025458571,-0.032588374,0.007714241,0.006341009,-0.008314769,0.004296114,0.022106345,0.015996506,0.992268875,0.001712825,0.124093815,-0.000521533,0.009935149,0.006121793,-0.005674443,-0.000008210,0.000147368,-0.000117717
1776086968.086765766,-2.458220409,0.089537201,9.517661460,0.007220706,0.022262778,-0.031523112,0.007732369,0.006435918,-0.008246024,0.004195713,0.022354074,0.016207296,0.992264156,0.001698979,0.124131489,-0.000576488,0.009935149,0.006121793,-0.005674443,-0.000008210,0.000147368,-0.000117717
1776086968.092517138,-2.448596800,0.091943103,9.476761123,0.011481764,0.018001720,-0.030457843,0.007755953,0.006565274,-0.008152505,0.004005558,0.022628427,0.016313424,0.992259112,0.001688299,0.124171591,-0.000648449,0.009935149,0.006121793,-0.005674443,-0.000008210,0.000147368,-0.000117717
1776086968.096642017,-2.446190898,0.084725396,9.479167026,0.007220706,0.009479604,-0.027262051,0.007772206,0.006659001,-0.008085228,0.003874947,0.022816583,0.016306449,0.992257131,0.001681176,0.124187264,-0.000695721,0.009935149,0.006121793,-0.005674443,-0.000008210,0.000147368,-0.000117717
1776086968.102504253,-2.467844164,0.075101783,9.508037852,0.002959648,0.007349075,-0.024066258,0.007794286,0.006793405,-0.007989365,0.003657982,0.023037624,0.016399118,0.992256277,0.001659813,0.124194040,-0.000752085,0.009935149,0.006121793,-0.005674443,-0.000008210,0.000147368,-0.000117717
1776086968.107025146,-2.489497284,0.079913592,9.529690971,-0.003431940,0.004153281,-0.019805200,0.007810294,0.006897922,-0.007914760,0.003423867,0.023199723,0.016605346,0.992256391,0.001632434,0.124193287,-0.000785704,0.009935149,0.006121793,-0.005674443,-0.000008210,0.000147368,-0.000117717
1776086968.112282038,-2.518368110,0.084725396,9.558561797,0.000829119,0.003088017,-0.028327320,0.007827324,0.007020453,-0.007826413,0.003055076,0.023417441,0.017006629,0.992257216,0.001597119,0.124186866,-0.000830014,0.009935149,0.006121793,-0.005674443,-0.000008210,0.000147368,-0.000117717
1776086968.116796494,-2.515962208,0.094349005,9.536908678,0.000829119,0.005218546,-0.021935731,0.007840279,0.007126672,-0.007748790,0.002684197,0.023639785,0.017381828,0.992257763,0.001571266,0.124182544,-0.000871048,0.009935149,0.006121793,-0.005674443,-0.000008210,0.000147368,-0.000117717
1776086968.122339725,-2.532803523,0.075101783,9.498414243,0.005090177,0.006283810,-0.023000997,0.007853674,0.007258407,-0.007651582,0.002148819,0.023890078,0.017690728,0.992257879,0.001546301,0.124181614,-0.000914835,0.009935149,0.006121793,-0.005674443,-0.000008210,0.000147368,-0.000117717
1776086968.126609564,-2.523179914,0.072695881,9.474355221,0.004024912,0.008414339,-0.014478881,0.007861867,0.007360730,-0.007575806,0.001688719,0.024038640,0.017802901,0.992257546,0.001531448,0.124184268,-0.000941083,0.009935149,0.006121793,-0.005674443,-0.000008210,0.000147368,-0.000117717
1776086968.132506847,-2.520774012,0.072695881,9.455108004,0.006155441,0.007349075,-0.012348350,0.007869962,0.007503085,-0.007470751,0.001056765,0.024239370,0.017825309,0.992256901,0.001514443,0.124189465,-0.000961944,0.009935149,0.006121793,-0.005674443,-0.000008210,0.000147368,-0.000117717
1776086968.136696100,-2.542427131,0.084725396,9.435860786,0.000829119,0.007349075,-0.008087292,0.007873326,0.007604985,-0.007396186,0.000549175,0.024408752,0.017773086,0.992256593,0.001499873,0.124192043,-0.000969707,0.009935149,0.006121793,-0.005674443,-0.000008210,0.000147368,-0.000117717
1776086968.142500162,-2.535209425,0.094349005,9.426237178,-0.006627733,0.005218546,-0.001695707,0.007874295,0.007747531,-0.007293445,-0.000215128,0.024710608,0.017630003,0.992256592,0.001463198,0.124192543,-0.000962826,0.009935149,0.006121793,-0.005674443,-0.000008210,0.000147368,-0.000117717
1776086968.146859169,-2.540021229,0.125625733,9.426237178,-0.017280377,0.003088017,0.003630616,0.007872106,0.007855941,-0.007216877,-0.000789406,0.025030110,0.017501126,0.992257207,0.001417654,0.124188310,-0.000942544,0.009935149,0.006121793,-0.005674443,-0.000008210,0.000147368,-0.000117717
1776086968.152500629,-2.494309088,0.159308364,9.409395863,-0.025802493,-0.001173041,0.005761147,0.007865835,0.007998854,-0.007118824,-0.001433795,0.025635423,0.017260207,0.992259165,0.001333173,0.124173897,-0.000902512,0.009935149,0.006121793,-0.005674443,-0.000008210,0.000147368,-0.000117717
1776086968.156941891,-2.429349583,0.161714266,9.363683721,-0.031128816,-0.009695157,0.000434823,0.007858789,0.008113959,-0.007043022,-0.001739226,0.026198825,0.016875439,0.992262479,0.001250955,0.124148485,-0.000872628,0.009935149,0.006121793,-0.005674443,-0.000008210,0.000147368,-0.000117717
1776086968.162505865,-2.398072854,0.152090657,9.399772254,-0.034324609,-0.019282537,-0.011283085,0.007848733,0.008261670,-0.006950725,-0.001875239,0.026896647,0.016301257,0.992269738,0.001133225,0.124091692,-0.000857275,0.009935149,0.006121793,-0.005674443,-0.000008210,0.000147368,-0.000117717
1776086968.166893244,-2.412508267,0.101566711,9.479167026,-0.035389874,-0.024608860,-0.015544143,0.007840474,0.008380611,-0.006879680,-0.001889812,0.027322791,0.016084563,0.992277468,0.001033564,0.124030699,-0.000861997,0.009935149,0.006121793,-0.005674443,-0.000008210,0.000147368,-0.000117717
1776086968.172496796,-2.424537778,0.103972614,9.471949319,-0.036455140,-0.026739391,-0.017674673,0.007829742,0.008534902,-0.006789726,-0.001940519,0.027746389,0.016021668,0.992288612,0.000902197,0.123942443,-0.000876554,0.009935149,0.006121793,-0.005674443,-0.000008210,0.000147368,-0.000117717
1776086968.177048683,-2.463032213,0.130437537,9.512849656,-0.038585667,-0.031000448,-0.020870466,0.007820589,0.008662156,-0.006716680,-0.002081263,0.028166252,0.016073138,0.992298543,0.000791118,0.123863539,-0.000893949,0.009935149,0.006121793,-0.005674443,-0.000008210,0.000147368,-0.000117717
1776086968.182350636,-2.491903186,0.137655244,9.558561797,-0.044977255,-0.033130974,-0.012348350,0.006845204,0.006925401,-0.008360458,-0.006601617,0.021548613,0.010030171,0.992348083,0.000467274,0.123461462,-0.001526490,0.009935682,0.006123824,-0.005670262,-0.000003519,0.000165912,-0.000099339
1776086968.186705351,-2.467844164,0.173743777,9.539314580,-0.046042517,-0.032065712,-0.009152558,0.006815868,0.007020565,-0.008316081,-0.006871556,0.022157475,0.010351219,0.992358521,0.000345978,0.123377984,-0.001522601,0.009935682,0.006123824,-0.005670262,-0.000003519,0.000165912,-0.000099339
1776086968.192526817,-2.434161387,0.171337874,9.529690971,-0.043911990,-0.031000448,-0.005956765,0.006775194,0.007152260,-0.008254930,-0.007102311,0.023086989,0.010657433,0.992372073,0.000186519,0.123269455,-0.001508362,0.009935682,0.006123824,-0.005670262,-0.000003519,0.000165912,-0.000099339
1776086968.196688414,-2.405290561,0.152090657,9.534502775,-0.043911990,-0.029935183,-0.002760969,0.006745538,0.007249645,-0.008210209,-0.007149898,0.023714894,0.010834629,0.992381475,0.000075549,0.123194063,-0.001491856,0.009935682,0.006123824,-0.005670262,-0.000003519,0.000165912,-0.000099339
1776086968.202495813,-2.398072854,0.108784418,9.570591308,-0.039650932,-0.025674125,-0.004891500,0.006704168,0.007389431,-0.008146311,-0.007097484,0.024425658,0.011171257,0.992393615,-0.000072965,0.123096517,-0.001468050,0.009935682,0.006123824,-0.005670262,-0.000003519,0.000165912,-0.000099339
1776086968.206728220,-2.414914170,0.075101783,9.609085743,-0.033259347,-0.017152008,-0.000630442,0.006674238,0.007493578,-0.008098176,-0.007045821,0.024788619,0.011574625,0.992400784,-0.000169718,0.123038831,-0.001449851,0.009935682,0.006123824,-0.005670262,-0.000003519,0.000165912,-0.000099339
1776086968.212492704,-2.424537778,0.089537201,9.609085743,-0.024737228,-0.012890950,0.002565354,0.006633669,0.007637771,-0.008029507,-0.007029461,0.025239632,0.012250156,0.992408283,-0.000278817,0.122978513,-0.001417048,0.009935682,0.006123824,-0.005670262,-0.000003519,0.000165912,-0.000099339
1776086968.216735840,-2.438973191,0.096754907,9.625927058,-0.020476170,-0.009695157,0.006826410,0.006603775,0.007745680,-0.007976374,-0.007061197,0.025622896,0.012794412,0.992412836,-0.000344682,0.122941946,-0.001386721,0.009935682,0.006123824,-0.005670262,-0.000003519,0.000165912,-0.000099339
1776086968.222493410,-2.419725974,0.108784418,9.599462134,-0.008758262,-0.004368834,0.007891675,0.006563003,0.007894881,-0.007900670,-0.007101808,0.026205099,0.013502535,0.992417515,-0.000410269,0.122904471,-0.001340794,0.009935682,0.006123824,-0.005670262,-0.000003519,0.000165912,-0.000099339
1776086968.226700068,-2.410102365,0.096754907,9.563373601,-0.006627733,0.002022753,0.017479055,0.006533119,0.008006016,-0.007843081,-0.007105997,0.026632450,0.013877476,0.992419437,-0.000442342,0.122889305,-0.001297916,0.009935682,0.006123824,-0.005670262,-0.000003519,0.000165912,-0.000099339
1776086968.232495785,-2.386043344,0.075101783,9.539314580,0.001894383,0.004153281,0.017479055,0.006492065,0.008161799,-0.007761713,-0.007060936,0.027125352,0.014201305,0.992420586,-0.000469490,0.122880650,-0.001226956,0.009935682,0.006123824,-0.005670262,-0.000003519,0.000165912,-0.000099339
1776086968.236700535,-2.369202028,0.067884077,9.522473265,0.005090177,0.008414339,0.021740112,0.006462575,0.008276478,-0.007701725,-0.006965972,0.027422000,0.014331952,0.992420602,-0.000476403,0.122881025,-0.001172547,0.009935682,0.006123824,-0.005670262,-0.000003519,0.000165912,-0.000099339
1776086968.242363453,-2.369202028,0.070289979,9.481572928,0.004024912,0.006283810,0.021740112,0.006423509,0.008432857,-0.007620548,-0.006831415,0.027807231,0.014337740,0.992420257,-0.000481974,0.122884523,-0.001093654,0.009935682,0.006123824,-0.005670262,-0.000003519,0.000165912,-0.000099339
1776086968.246794939,-2.388449246,0.075101783,9.469543417,0.002959648,-0.002238305,0.019609584,0.006393312,0.008556788,-0.007557230,-0.006796875,0.028124671,0.014238915,0.992421428,-0.000488980,0.122875548,-0.001033963,0.009935682,0.006123824,-0.005670262,-0.000003519,0.000165912,-0.000099339
1776086968.252497673,-2.364390224,0.094349005,9.457513906,-0.005562468,-0.008629892,0.021740112,0.006354658,0.008718539,-0.007476591,-0.006759461,0.028603125,0.014041768,0.992425536,-0.000511581,0.122842911,-0.000955460,0.009935682,0.006123824,-0.005670262,-0.000003519,0.000165912,-0.000099339
1776086968.256854773,-2.306648572,0.130437537,9.452702102,-0.013019320,-0.015021479,0.020674849,0.006325619,0.008844229,-0.007415910,-0.006570160,0.029091109,0.013811941,0.992430371,-0.000545995,0.122804173,-0.000892184,0.009935682,0.006123824,-0.005670262,-0.000003519,0.000165912,-0.000099339
1776086968.262500286,-2.253718724,0.099160809,9.438266689,-0.013019320,-0.020347802,0.012152733,0.006290016,0.009010300,-0.007339139,-0.006042591,0.029741651,0.013385298,0.992438638,-0.000602705,0.122737567,-0.000822324,0.009935682,0.006123824,-0.005670262,-0.000003519,0.000165912,-0.000099339
1776086968.266752005,-2.212818387,0.075101783,9.457513906,-0.014084584,-0.022478329,0.006826410,0.006265575,0.009137551,-0.007282993,-0.005454353,0.030117008,0.013025509,0.992445816,-0.000648352,0.122679531,-0.000784176,0.009935682,0.006123824,-0.005670262,-0.000003519,0.000165912,-0.000099339
1776086968.272507191,-2.217630192,0.026983740,9.498414243,-0.010888791,-0.022478329,-0.004891500,0.006236859,0.009311763,-0.007209019,-0.004524760,0.030423978,0.012681491,0.992455881,-0.000710108,0.122597909,-0.000757251,0.009935682,0.006123824,-0.005670262,-0.000003519,0.000165912,-0.000099339
1776086968.277006865,-2.217630192,0.010142424,9.479167026,-0.008758262,-0.019282537,-0.011283085,0.006218125,0.009448881,-0.007152449,-0.003802122,0.030521824,0.012462713,0.992463291,-0.000754940,0.122537642,-0.000757154,0.009935682,0.006123824,-0.005670262,-0.000003519,0.000165912,-0.000099339
1776086968.282378435,-2.282589550,-0.001887086,9.479167026,-0.005562468,-0.016086744,-0.021935731,0.006857954,0.006507497,-0.012065001,-0.000817660,0.017480628,-0.006143481,0.992525465,-0.000307960,0.122033261,-0.000995092,0.009931938,0.006126666,-0.005669281,-0.000023545,0.000198166,-0.000054214
1776086968.286762953,-2.321083985,-0.006698891,9.469543417,-0.005562468,-0.011825686,-0.026196789,0.006854995,0.006584043,-0.012092371,-0.000532176,0.017435593,-0.006341220,0.992530785,-0.000346639,0.121989584,-0.001030963,0.009931938,0.006126666,-0.005669281,-0.000023545,0.000198166,-0.000054214
1776086968.292499781,-2.333113496,-0.004292989,9.402178156,-0.007692997,-0.009695157,-0.027262051,0.006852441,0.006683899,-0.012130006,-0.000358133,0.017376746,-0.006779097,0.992536611,-0.000401204,0.121941534,-0.001085109,0.009931938,0.006126666,-0.005669281,-0.000023545,0.000198166,-0.000054214
1776086968.296783209,-2.349954811,-0.037975619,9.394960450,-0.008758262,-0.006499363,-0.026196789,0.006850969,0.006758102,-0.012160043,-0.000329506,0.017269917,-0.007245981,0.992540259,-0.000445335,0.121911322,-0.001125123,0.009931938,0.006126666,-0.005669281,-0.000023545,0.000198166,-0.000054214
1776086968.302493334,-2.335519398,-0.047599228,9.390148645,-0.010888791,-0.003303570,-0.021935731,0.006849142,0.006855977,-0.012203286,-0.000310067,0.017011323,-0.007899867,0.992544010,-0.000507756,0.121880110,-0.001170366,0.009931938,0.006126666,-0.005669281,-0.000023545,0.000198166,-0.000054214
1776086968.306729317,-2.325895789,-0.069252347,9.443078493,-0.009823526,-0.004368834,-0.016609408,0.006848013,0.006927499,-0.012237593,-0.000223426,0.016757195,-0.008298280,0.992546524,-0.000553942,0.121859202,-0.001193715,0.009931938,0.006126666,-0.005669281,-0.000023545,0.000198166,-0.000054214
1776086968.312499046,-2.330707594,-0.090905462,9.474355221,-0.002366675,-0.001173041,-0.014478881,0.006847263,0.007022841,-0.012286367,-0.000036347,0.016292101,-0.008608374,0.992549591,-0.000603335,0.121833764,-0.001216341,0.009931938,0.006126666,-0.005669281,-0.000023545,0.000198166,-0.000054214
1776086968.316801310,-2.337925300,-0.078875951,9.500820145,0.006155441,-0.000107776,-0.011283085,0.006847415,0.007092148,-0.012323627,0.000106807,0.015926501,-0.008712771,0.992551335,-0.000622404,0.121819327,-0.001229624,0.009931938,0.006126666,-0.005669281,-0.000023545,0.000198166,-0.000054214
1776086968.322336674,-2.330707594,-0.040381521,9.512849656,0.018938616,0.002022753,-0.014478881,0.006848584,0.007179392,-0.012371941,0.000315511,0.015595805,-0.008743922,0.992553057,-0.000617669,0.121805106,-0.001250308,0.009931938,0.006126666,-0.005669281,-0.000023545,0.000198166,-0.000054214
1776086968.327762127,-2.292213159,0.012548327,9.483978830,0.030656524,0.003088017,-0.013413616,0.006851145,0.007263789,-0.012419666,0.000628886,0.015515724,-0.008849143,0.992554233,-0.000580390,0.121795425,-0.001277500,0.009931938,0.006126666,-0.005669281,-0.000023545,0.000198166,-0.000054214
1776086968.332360029,-2.270560039,0.002924718,9.423831276,0.042374432,0.003088017,-0.020870466,0.006854841,0.007335189,-0.012461093,0.000978760,0.015542116,-0.009170454,0.992555083,-0.000522952,0.121788398,-0.001311118,0.009931938,0.006126666,-0.005669281,-0.000023545,0.000198166,-0.000054214
1776086968.336738825,-2.256124626,0.024577837,9.414207667,0.045570225,0.005218546,-0.020870466,0.006859943,0.007403345,-0.012502284,0.001351389,0.015587775,-0.009643798,0.992555602,-0.000453038,0.121783994,-0.001353226,0.009931938,0.006126666,-0.005669281,-0.000023545,0.000198166,-0.000054214
1776086968.342523336,-2.272965942,0.002924718,9.406989960,0.048766017,0.008414339,-0.021935731,0.006869131,0.007493657,-0.012560009,0.001825321,0.015637550,-0.010314657,0.992555339,-0.000351683,0.121785807,-0.001411510,0.009931938,0.006126666,-0.005669281,-0.000023545,0.000198166,-0.000054214
1776086968.346728086,-2.284995452,0.007736522,9.366089624,0.051961817,0.012675397,-0.027262051,0.006877356,0.007559398,-0.012604581,0.002087112,0.015632515,-0.010885749,0.992554177,-0.000272146,0.121794892,-0.001461366,0.009931938,0.006126666,-0.005669281,-0.000023545,0.000198166,-0.000054214
1776086968.352503777,-2.333113496,0.055854566,9.366089624,0.044504963,0.016936455,-0.026196789,0.006889889,0.007650079,-0.012669929,0.002252838,0.015768592,-0.011742923,0.992551057,-0.000169732,0.121819591,-0.001535210,0.009931938,0.006126666,-0.005669281,-0.000023545,0.000198166,-0.000054214
1776086968.357135773,-2.349954811,0.079913592,9.339624700,0.041309170,0.021197513,-0.029392581,0.006900267,0.007723748,-0.012725968,0.002228151,0.016039837,-0.012453527,0.992547336,-0.000100126,0.121849211,-0.001595379,0.009931938,0.006126666,-0.005669281,-0.000023545,0.000198166,-0.000054214
1776086968.362509251,-2.333113496,0.096754907,9.310753874,0.030656524,0.027589099,-0.021935731,0.006912081,0.007811063,-0.012795489,0.002169014,0.016458740,-0.013422142,0.992541272,-0.000037124,0.121897805,-0.001657234,0.009931938,0.006126666,-0.005669281,-0.000023545,0.000198166,-0.000054214
1776086968.366929054,-2.311460376,0.079913592,9.289100754,0.025330201,0.029719628,-0.024066258,0.006921693,0.007884563,-0.012856858,0.002180142,0.016800544,-0.014347743,0.992535139,-0.000002094,0.121947150,-0.001700116,0.009931938,0.006126666,-0.005669281,-0.000023545,0.000198166,-0.000054214
1776086968.372257710,-2.277777746,0.096754907,9.322783385,0.016808085,0.038241744,-0.021935731,0.006933768,0.007975179,-0.012936297,0.002351987,0.017210284,-0.015468274,0.992526006,0.000021853,0.122020757,-0.001749568,0.009931938,0.006126666,-0.005669281,-0.000023545,0.000198166,-0.000054214
1776086968.376664877,-2.272965942,0.070289979,9.375713232,0.010416498,0.044633329,-0.025131524,0.006944744,0.008051727,-0.013006148,0.002629198,0.017527674,-0.016230435,0.992516439,0.000025235,0.122097972,-0.001789627,0.009931938,0.006126666,-0.005669281,-0.000023545,0.000198166,-0.000054214
1776086968.382506847,-2.287401355,0.089537201,9.380525037,0.007220706,0.051024921,-0.029392581,0.007757185,0.005684480,-0.014599276,0.006730861,0.006513782,-0.022480495,0.992533173,0.000882906,0.121961956,-0.001549893,0.009926044,0.006128375,-0.005672120,-0.000037418,0.000225117,-0.000042656
1776086968.386806965,-2.328301692,0.116002124,9.361277819,-0.001301410,0.048894390,-0.035784166,0.007786465,0.005713168,-0.014697283,0.006887623,0.006829079,-0.023103081,0.992521597,0.000861127,0.122055566,-0.001605423,0.009926044,0.006128375,-0.005672120,-0.000037418,0.000225117,-0.000042656
1776086968.392365456,-2.381231539,0.123219831,9.380525037,-0.005562468,0.038241744,-0.054958928,0.007824643,0.005752542,-0.014827762,0.006848903,0.007337749,-0.023844612,0.992508739,0.000810980,0.122158995,-0.001710311,0.009926044,0.006128375,-0.005672120,-0.000037418,0.000225117,-0.000042656
1776086968.396666765,-2.398072854,0.137655244,9.416613569,-0.010888791,0.029719628,-0.059219990,0.007853798,0.005785062,-0.014931233,0.006707517,0.007783588,-0.024266576,0.992501256,0.000758829,0.122218602,-0.001815246,0.009926044,0.006128375,-0.005672120,-0.000037418,0.000225117,-0.000042656
1776086968.402512074,-2.407696463,0.147278853,9.409395863,-0.017280377,0.021197513,-0.056024197,0.007892305,0.005832571,-0.015074460,0.006467760,0.008471843,-0.024739443,0.992494113,0.000670726,0.122274915,-0.001957320,0.009926044,0.006128375,-0.005672120,-0.000037418,0.000225117,-0.000042656
1776086968.406946421,-2.410102365,0.140061146,9.426237178,-0.020476170,0.014805926,-0.058154721,0.007920541,0.005871325,-0.015184899,0.006267625,0.009007119,-0.025071087,0.992490705,0.000593453,0.122301243,-0.002062639,0.009926044,0.006128375,-0.005672120,-0.000037418,0.000225117,-0.000042656
1776086968.412263393,-2.453408604,0.084725396,9.474355221,-0.022606701,0.013740662,-0.058154721,0.007953031,0.005920512,-0.015318735,0.005953422,0.009494836,-0.025271939,0.992487805,0.000493406,0.122322987,-0.002190871,0.009926044,0.006128375,-0.005672120,-0.000037418,0.000225117,-0.000042656
1776086968.416852474,-2.499120892,0.072695881,9.483978830,-0.024737228,0.009479604,-0.051763136,0.007979350,0.005964719,-0.015434700,0.005516808,0.009771149,-0.025267302,0.992486048,0.000403087,0.122335694,-0.002293676,0.009926044,0.006128375,-0.005672120,-0.000037418,0.000225117,-0.000042656
1776086968.422504425,-2.540021229,0.082319494,9.493602439,-0.025802493,0.015871190,-0.049632605,0.008008383,0.006020931,-0.015577176,0.004757019,0.010119957,-0.025149470,0.992483519,0.000288848,0.122354335,-0.002407786,0.009926044,0.006128375,-0.005672120,-0.000037418,0.000225117,-0.000042656
1776086968.426744223,-2.561674349,0.063072272,9.546532286,-0.024737228,0.018001720,-0.042175759,0.008027143,0.006064366,-0.015683276,0.004092530,0.010369542,-0.024900262,0.992480525,0.000204417,0.122377278,-0.002483297,0.009926044,0.006128375,-0.005672120,-0.000037418,0.000225117,-0.000042656
1776086968.432537794,-2.527991718,0.164120168,9.585026721,-0.011954055,0.023328042,-0.027262051,0.008048525,0.006126150,-0.015825832,0.003288807,0.010958645,-0.024311400,0.992475172,0.000112943,0.122419290,-0.002556776,0.009926044,0.006128375,-0.005672120,-0.000037418,0.000225117,-0.000042656
1776086968.436666965,-2.479873675,0.120813929,9.479167026,-0.013019320,0.033980686,-0.029392581,0.008061200,0.006172521,-0.015925715,0.002850461,0.011501575,-0.024067732,0.992469361,0.000061411,0.122465570,-0.002597528,0.009926044,0.006128375,-0.005672120,-0.000037418,0.000225117,-0.000042656
1776086968.442508459,-2.491903186,0.055854566,9.503226047,-0.021541435,0.044633329,-0.030457843,0.008076197,0.006241057,-0.016066051,0.002284083,0.011963890,-0.023980217,0.992457304,-0.000025877,0.122561956,-0.002658094,0.009926044,0.006128375,-0.005672120,-0.000037418,0.000225117,-0.000042656
1776086968.446607113,-2.564080251,0.046230957,9.666827395,-0.013019320,0.054220714,-0.021935731,0.008084606,0.006290457,-0.016163361,0.001819308,0.012141322,-0.023503645,0.992446309,-0.000086130,0.122650166,-0.002693007,0.009926044,0.006128375,-0.005672120,-0.000037418,0.000225117,-0.000042656
1776086968.452497482,-2.566486153,0.048636859,9.630738862,-0.001301410,0.056351244,-0.009152558,0.008093047,0.006362684,-0.016298558,0.001046693,0.012382565,-0.022400799,0.992428458,-0.000139249,0.122793983,-0.002715703,0.009926044,0.006128375,-0.005672120,-0.000037418,0.000225117,-0.000042656
1776086968.456508636,-2.585733370,0.063072272,9.625927058,0.007220706,0.059547037,-0.000630442,0.008096083,0.006412752,-0.016387043,0.000466951,0.012581890,-0.021718679,0.992415692,-0.000152640,0.122897164,-0.002712448,0.009926044,0.006128375,-0.005672120,-0.000037418,0.000225117,-0.000042656
1776086968.462500572,-2.583327468,0.116002124,9.678856906,0.007220706,0.063808091,0.012152733,0.008096308,0.006489639,-0.016513671,-0.000391877,0.013081458,-0.020547499,0.992395317,-0.000156023,0.123062351,-0.002677483,0.009926044,0.006128375,-0.005672120,-0.000037418,0.000225117,-0.000042656
1776086968.466583729,-2.571297957,0.108784418,9.649986079,0.016808085,0.067003883,0.017479055,0.008093617,0.006543935,-0.016595858,-0.000926210,0.013513766,-0.019708916,0.992380528,-0.000146320,0.123182444,-0.002636517,0.009926044,0.006128375,-0.005672120,-0.000037418,0.000225117,-0.000042656
1776086968.472543955,-2.537615327,0.060666370,9.604273938,0.020003881,0.069134414,0.026001170,0.008086066,0.006625851,-0.016710419,-0.001607474,0.013973768,-0.018733182,0.992357988,-0.000110692,0.123365571,-0.002558588,0.009926044,0.006128375,-0.005672120,-0.000037418,0.000225117,-0.000042656
1776086968.476602554,-2.494309088,0.058260468,9.625927058,0.016808085,0.068069153,0.035588551,0.008078903,0.006682985,-0.016785275,-0.001922195,0.014180795,-0.018154156,0.992342529,-0.000084162,0.123491342,-0.002487288,0.009926044,0.006128375,-0.005672120,-0.000037418,0.000225117,-0.000042656
1776086968.482504845,-2.479873675,0.043825055,9.640362471,0.021069143,0.063808091,0.039849609,0.005878974,0.005503506,-0.015224779,-0.010961545,0.009266330,-0.011149823,0.992325744,0.000266080,0.123624802,-0.002540678,0.009923659,0.006128828,-0.005671133,-0.000011019,0.000237362,-0.000053251
1776086968.486881256,-2.467844164,0.041419153,9.599462134,0.023199674,0.058481768,0.037719078,0.005830696,0.005544303,-0.015272253,-0.011101228,0.009377786,-0.010545631,0.992311089,0.000304926,0.123744169,-0.002447418,0.009923659,0.006128828,-0.005671133,-0.000011019,0.000237362,-0.000053251
1776086968.492504358,-2.491903186,0.039013250,9.594650330,0.021069143,0.047829129,0.034523286,0.005767629,0.005597381,-0.015329696,-0.011330459,0.009500727,-0.009885510,0.992294989,0.000353857,0.123875249,-0.002335028,0.009923659,0.006128828,-0.005671133,-0.000011019,0.000237362,-0.000053251
1776086968.496765137,-2.489497284,0.048636859,9.580214917,0.017873351,0.035045952,0.033458024,0.005718879,0.005638085,-0.015370811,-0.011552571,0.009606037,-0.009413670,0.992285855,0.000384683,0.123949812,-0.002253677,0.009923659,0.006128828,-0.005671133,-0.000011019,0.000237362,-0.000053251
1776086968.502500534,-2.453408604,0.063072272,9.520067362,0.010416498,0.020132247,0.032392759,0.005651939,0.005693771,-0.015423653,-0.011789975,0.009812093,-0.009012925,0.992278463,0.000410553,0.124010808,-0.002145325,0.009923659,0.006128828,-0.005671133,-0.000011019,0.000237362,-0.000053251
1776086968.506775618,-2.424537778,0.048636859,9.488790634,0.002959648,0.007349075,0.031327493,0.005601346,0.005736044,-0.015462023,-0.011879122,0.009964253,-0.008937792,0.992276617,0.000413674,0.124026934,-0.002064855,0.009923659,0.006128828,-0.005671133,-0.000011019,0.000237362,-0.000053251
1776086968.512505054,-2.361984322,0.041419153,9.476761123,-0.007692997,-0.002238305,0.035588551,0.005533578,0.005793539,-0.015513473,-0.011776753,0.010106023,-0.009021828,0.992278126,0.000392619,0.124016802,-0.001949264,0.009923659,0.006128828,-0.005671133,-0.000011019,0.000237362,-0.000053251
1776086968.516657114,-2.321083985,0.019766033,9.481572928,-0.017280377,-0.009695157,0.032392759,0.005485254,0.005835592,-0.015551198,-0.011500379,0.010150104,-0.009150122,0.992281414,0.000356616,0.123991943,-0.001861801,0.009923659,0.006128828,-0.005671133,-0.000011019,0.000237362,-0.000053251
1776086968.522564888,-2.304242670,0.026983740,9.512849656,-0.025802493,-0.017152008,0.024935907,0.005419020,0.005895636,-0.015605613,-0.010922427,0.010177129,-0.009271274,0.992288786,0.000276857,0.123934769,-0.001749657,0.009923659,0.006128828,-0.005671133,-0.000011019,0.000237362,-0.000053251
1776086968.527015209,-2.309054474,0.029389642,9.565779504,-0.033259347,-0.024608860,0.019609584,0.005371529,0.005941034,-0.015646687,-0.010420199,0.010224820,-0.009187460,0.992296360,0.000197342,0.123875268,-0.001677093,0.009923659,0.006128828,-0.005671133,-0.000011019,0.000237362,-0.000053251
1776086968.532379389,-2.301836768,0.046230957,9.604273938,-0.031128816,-0.027804652,0.011087468,0.005317411,0.005996201,-0.015695065,-0.009757299,0.010343961,-0.008850267,0.992307209,0.000092087,0.123789386,-0.001607175,0.009923659,0.006128828,-0.005671133,-0.000011019,0.000237362,-0.000053251
1776086968.536736012,-2.258530529,0.063072272,9.594650330,-0.027933022,-0.028869918,0.003630616,0.005276328,0.006041650,-0.015732952,-0.009102999,0.010520354,-0.008542443,0.992316549,0.000010197,0.123715020,-0.001568377,0.009923659,0.006128828,-0.005671133,-0.000011019,0.000237362,-0.000053251
1776086968.542562485,-2.224847898,0.060666370,9.589838525,-0.021541435,-0.026739391,-0.004891500,0.005226409,0.006103786,-0.015781804,-0.008032064,0.010808571,-0.008226479,0.992328793,-0.000088341,0.123617080,-0.001541314,0.009923659,0.006128828,-0.005671133,-0.000011019,0.000237362,-0.000053251
1776086968.546730042,-2.200788877,0.079913592,9.609085743,-0.014084584,-0.021413067,-0.013413616,0.005194779,0.006149343,-0.015815618,-0.007147073,0.011054217,-0.008000781,0.992336554,-0.000146688,0.123554710,-0.001541363,0.009923659,0.006128828,-0.005671133,-0.000011019,0.000237362,-0.000053251
1776086968.552526236,-2.217630192,0.060666370,9.613897547,-0.011954055,-0.019282537,-0.013413616,0.005157003,0.006214429,-0.015860901,-0.005887602,0.011403798,-0.007624288,0.992345985,-0.000215560,0.123478665,-0.001555402,0.009923659,0.006128828,-0.005671133,-0.000011019,0.000237362,-0.000053251
1776086968.556599140,-2.248906920,0.072695881,9.592244427,-0.005562468,-0.016086744,-0.023000997,0.005134608,0.006261353,-0.015891434,-0.005109916,0.011638504,-0.007368908,0.992351923,-0.000256542,0.123430595,-0.001576028,0.009923659,0.006128828,-0.005671133,-0.000011019,0.000237362,-0.000053251
1776086968.562509537,-2.340331202,0.058260468,9.597056232,-0.007692997,-0.012890950,-0.023000997,0.005106645,0.006331151,-0.015933772,-0.004352200,0.011980097,-0.006957695,0.992359346,-0.000311498,0.123370195,-0.001620797,0.009923659,0.006128828,-0.005671133,-0.000011019,0.000237362,-0.000053251
1776086968.566510677,-2.369202028,0.079913592,9.563373601,-0.004497204,-0.008629892,-0.027262051,0.005089757,0.006379584,-0.015961048,-0.004089321,0.012229762,-0.006676414,0.992363439,-0.000348157,0.123336704,-0.001655467,0.009923659,0.006128828,-0.005671133,-0.000011019,0.000237362,-0.000053251
1776086968.572318792,-2.376419735,0.103972614,9.517661460,-0.005562468,-0.006499363,-0.024066258,0.005066643,0.006452074,-0.015999215,-0.003869824,0.012731646,-0.006466198,0.992368229,-0.000398478,0.123297293,-0.001707715,0.009923659,0.006128828,-0.005671133,-0.000011019,0.000237362,-0.000053251
1776086968.576569796,-2.393261050,0.077507690,9.498414243,-0.008758262,-0.004368834,-0.018739939,0.005050353,0.006506974,-0.016026634,-0.003794578,0.013097612,-0.006433728,0.992371186,-0.000438678,0.123272952,-0.001736411,0.009923659,0.006128828,-0.005671133,-0.000011019,0.000237362,-0.000053251
1776086968.582700729,-2.374013833,0.065478174,9.483978830,-0.010888791,-0.003303570,-0.014478881,0.005027353,0.006588555,-0.016066247,-0.003708184,0.013515383,-0.006488729,0.992374865,-0.000502937,0.123242727,-0.001762210,0.009923659,0.006128828,-0.005671133,-0.000011019,0.000237362,-0.000053251
1776086968.586893082,-2.402884659,0.029389642,9.520067362,-0.015149849,-0.007564628,-0.008087292,0.008122160,0.010190863,-0.014174222,0.009332701,0.026673542,0.000468638,0.992318069,0.000001854,0.123689546,-0.002397264,0.009919368,0.006125152,-0.005667048,-0.000037453,0.000201602,-0.000079836
1776086968.592515945,-2.431755485,0.017360131,9.548938188,-0.010888791,-0.012890950,-0.005956765,0.008174662,0.010341083,-0.014170916,0.009341958,0.026758461,0.000707321,0.992323743,-0.000062722,0.123644078,-0.002393067,0.009919368,0.006125152,-0.005667048,-0.000037453,0.000201602,-0.000079836
1776086968.596627235,-2.467844164,0.014954229,9.560967699,-0.006627733,-0.015021479,-0.004891500,0.008212853,0.010451169,-0.014167415,0.009236432,0.026794498,0.000996118,0.992328844,-0.000100859,0.123603207,-0.002387822,0.009919368,0.006125152,-0.005667048,-0.000037453,0.000201602,-0.000079836
1776086968.602504492,-2.477467773,0.029389642,9.556155895,-0.000236146,-0.019282537,-0.012348350,0.008266304,0.010608918,-0.014160190,0.008952807,0.026886692,0.001462394,0.992337271,-0.000141029,0.123535421,-0.002391576,0.009919368,0.006125152,-0.005667048,-0.000037453,0.000201602,-0.000079836
1776086968.606840849,-2.463032213,0.051042761,9.565779504,0.002959648,-0.021413067,-0.010217823,0.008304691,0.010725829,-0.014153086,0.008751679,0.027034730,0.001813876,0.992344328,-0.000161083,0.123478505,-0.002401359,0.009919368,0.006125152,-0.005667048,-0.000037453,0.000201602,-0.000079836
1776086968.612509966,-2.463032213,0.065478174,9.565779504,0.008285969,-0.025674125,-0.009152558,0.008353666,0.010879935,-0.014141455,0.008526169,0.027332040,0.002289656,0.992354680,-0.000174777,0.123395078,-0.002411144,0.009919368,0.006125152,-0.005667048,-0.000037453,0.000201602,-0.000079836
1776086968.616944790,-2.448596800,0.055854566,9.534502775,0.016808085,-0.029935183,-0.010217823,0.008391103,0.011001686,-0.014130642,0.008357281,0.027574883,0.002586731,0.992363940,-0.000170275,0.123320401,-0.002420692,0.009919368,0.006125152,-0.005667048,-0.000037453,0.000201602,-0.000079836
1776086968.622317076,-2.453408604,0.046230957,9.510443754,0.017873351,-0.034196243,-0.011283085,0.008435391,0.011150473,-0.014116183,0.008130293,0.027815644,0.002796166,0.992376556,-0.000152425,0.123218547,-0.002436683,0.009919368,0.006125152,-0.005667048,-0.000037453,0.000201602,-0.000079836
1776086968.626927137,-2.475061871,0.082319494,9.493602439,0.016808085,-0.041653089,-0.014478881,0.008472214,0.011279320,-0.014103054,0.007844414,0.028082496,0.002899282,0.992389024,-0.000137745,0.123117740,-0.002455277,0.009919368,0.006125152,-0.005667048,-0.000037453,0.000201602,-0.000079836
1776086968.632300377,-2.487091382,0.094349005,9.483978830,0.011481764,-0.049109943,-0.013413616,0.008513148,0.011431397,-0.014087279,0.007392148,0.028522772,0.002972395,0.992405998,-0.000129557,0.122980382,-0.002478730,0.009919368,0.006125152,-0.005667048,-0.000037453,0.000201602,-0.000079836
1776086968.636818409,-2.475061871,0.132843440,9.469543417,0.009351235,-0.052305736,-0.020870466,0.008545633,0.011561359,-0.014073831,0.006987821,0.029007666,0.002980953,0.992421714,-0.000131949,0.122852963,-0.002504576,0.009919368,0.006125152,-0.005667048,-0.000037453,0.000201602,-0.000079836
1776086968.642388582,-2.448596800,0.135249342,9.426237178,0.004024912,-0.049109943,-0.024066258,0.008583302,0.011724924,-0.014057705,0.006537517,0.029721226,0.002809118,0.992441028,-0.000147025,0.122695893,-0.002549888,0.009919368,0.006125152,-0.005667048,-0.000037453,0.000201602,-0.000079836
1776086968.646709919,-2.414914170,0.118408027,9.419019471,-0.006627733,-0.046979412,-0.023000997,0.008610992,0.011854493,-0.014046151,0.006277678,0.030245825,0.002538203,0.992455279,-0.000176122,0.122579790,-0.002585208,0.009919368,0.006125152,-0.005667048,-0.000037453,0.000201602,-0.000079836
1776086968.652385712,-2.407696463,0.123219831,9.459919808,-0.011954055,-0.039522566,-0.026196789,0.008645995,0.012028040,-0.014032572,0.006056656,0.030907476,0.002246716,0.992472294,-0.000237175,0.122440852,-0.002631822,0.009919368,0.006125152,-0.005667048,-0.000037453,0.000201602,-0.000079836
1776086968.656519175,-2.412508267,0.087131298,9.491196536,-0.013019320,-0.031000448,-0.024066258,0.008670767,0.012156666,-0.014023427,0.005929572,0.031329105,0.002177921,0.992482645,-0.000288284,0.122356073,-0.002666057,0.009919368,0.006125152,-0.005667048,-0.000037453,0.000201602,-0.000079836
1776086968.662514687,-2.438973191,0.096754907,9.496008341,-0.014084584,-0.025674125,-0.019805200,0.008705534,0.012346126,-0.014010286,0.005668093,0.031871320,0.002205788,0.992495126,-0.000364359,0.122253712,-0.002705821,0.009919368,0.006125152,-0.005667048,-0.000037453,0.000201602,-0.000079836
1776086968.666517496,-2.501526795,0.094349005,9.515255558,-0.014084584,-0.019282537,-0.019805200,0.008727542,0.012474464,-0.014001240,0.005327981,0.032252982,0.002314233,0.992502028,-0.000415655,0.122197014,-0.002728011,0.009919368,0.006125152,-0.005667048,-0.000037453,0.000201602,-0.000079836
1776086968.672515631,-2.496714990,0.103972614,9.515255558,-0.019410906,-0.012890950,-0.008087292,0.008757487,0.012669735,-0.013986578,0.004656647,0.032857421,0.002574498,0.992510061,-0.000498247,0.122131105,-0.002742854,0.009919368,0.006125152,-0.005667048,-0.000037453,0.000201602,-0.000079836
1776086968.676689148,-2.482279577,0.125625733,9.510443754,-0.018345643,-0.007564628,-0.000630442,0.008776018,0.012807889,-0.013975497,0.004223617,0.033347759,0.002735910,0.992514204,-0.000557651,0.122097402,-0.002732788,0.009919368,0.006125152,-0.005667048,-0.000037453,0.000201602,-0.000079836
1776086968.682507515,-2.455814506,0.108784418,9.508037852,-0.016215112,-0.007564628,0.007891675,0.008223797,0.010959630,-0.013804760,0.001099561,0.024807690,0.003633972,0.992637205,0.000099918,0.121107539,-0.002081731,0.009914240,0.006132393,-0.005672369,-0.000032800,0.000224218,-0.000080790
1776086968.686783075,-2.422131876,0.067884077,9.493602439,-0.014084584,-0.003303570,0.020674849,0.008227783,0.011066391,-0.013789086,0.000765055,0.025132369,0.003697690,0.992640291,0.000051846,0.121083101,-0.002032898,0.009914240,0.006132393,-0.005672369,-0.000032800,0.000224218,-0.000080790
1776086968.692597866,-2.434161387,0.031795544,9.512849656,-0.009823526,0.003088017,0.024935907,0.008231088,0.011213176,-0.013767338,0.000371584,0.025354535,0.003782840,0.992642654,-0.000001277,0.121065216,-0.001943013,0.009914240,0.006132393,-0.005672369,-0.000032800,0.000224218,-0.000080790
1776086968.696794987,-2.426943680,0.026983740,9.512849656,-0.006627733,0.008414339,0.029196965,0.008232050,0.011319752,-0.013751244,0.000087073,0.025430722,0.003885970,0.992642881,-0.000030748,0.121064496,-0.001870206,0.009914240,0.006132393,-0.005672369,-0.000032800,0.000224218,-0.000080790
1776086968.702503443,-2.438973191,0.039013250,9.532096873,-0.005562468,0.012675397,0.030262228,0.008231446,0.011465283,-0.013728499,-0.000298558,0.025557130,0.004082854,0.992641538,-0.000063850,0.121077085,-0.001764372,0.009914240,0.006132393,-0.005672369,-0.000032800,0.000224218,-0.000080790
1776086968.706876993,-2.429349583,0.075101783,9.524879167,-0.002366675,0.019066984,0.034523286,0.008229502,0.011577502,-0.013710254,-0.000590637,0.025759962,0.004260447,0.992639100,-0.000083861,0.121098284,-0.001678072,0.009914240,0.006132393,-0.005672369,-0.000032800,0.000224218,-0.000080790
1776086968.712321520,-2.383637441,0.087131298,9.479167026,-0.001301410,0.021197513,0.037719078,0.008225612,0.011718796,-0.013686936,-0.000838261,0.026143297,0.004305391,0.992634665,-0.000101765,0.121136177,-0.001561266,0.009914240,0.006132393,-0.005672369,-0.000032800,0.000224218,-0.000080790
1776086968.716724396,-2.349954811,0.087131298,9.459919808,-0.000236146,0.019066984,0.037719078,0.008221784,0.011834641,-0.013668298,-0.000900593,0.026479216,0.004160887,0.992631073,-0.000113491,0.121166815,-0.001463601,0.009914240,0.006132393,-0.005672369,-0.000032800,0.000224218,-0.000080790
1776086968.722503185,-2.301836768,0.070289979,9.445484395,-0.005562468,0.021197513,0.039849609,0.008216951,0.011988792,-0.013645238,-0.000772110,0.026871349,0.003819921,0.992626346,-0.000134618,0.121207036,-0.001331613,0.009914240,0.006132393,-0.005672369,-0.000032800,0.000224218,-0.000080790
1776086968.727785587,-2.292213159,0.034201446,9.464731612,-0.009823526,0.022262778,0.038784344,0.008213592,0.012131319,-0.013625947,-0.000499775,0.027091343,0.003483934,0.992621496,-0.000166322,0.121248006,-0.001208032,0.009914240,0.006132393,-0.005672369,-0.000032800,0.000224218,-0.000080790
1776086968.732509375,-2.306648572,0.026983740,9.500820145,-0.013019320,0.030784894,0.036653817,0.008211864,0.012259521,-0.013609893,-0.000231639,0.027188099,0.003313099,0.992615764,-0.000203858,0.121295890,-0.001100200,0.009914240,0.006132393,-0.005672369,-0.000032800,0.000224218,-0.000080790
1776086968.736772537,-2.337925300,0.022171935,9.529690971,-0.009823526,0.036111213,0.029196965,0.008211272,0.012375565,-0.013595761,-0.000046085,0.027252066,0.003316770,0.992608777,-0.000238957,0.121353751,-0.001013029,0.009914240,0.006132393,-0.005672369,-0.000032800,0.000224218,-0.000080790
1776086968.742504358,-2.330707594,0.051042761,9.512849656,-0.009823526,0.040372275,0.021740112,0.008211585,0.012532224,-0.013576593,0.000155220,0.027410938,0.003371680,0.992597677,-0.000284182,0.121445171,-0.000917599,0.009914240,0.006132393,-0.005672369,-0.000032800,0.000224218,-0.000080790
1776086968.746695518,-2.316272181,0.043825055,9.512849656,-0.008758262,0.042502806,0.022805378,0.008212631,0.012647450,-0.013562472,0.000344073,0.027574443,0.003366567,0.992588729,-0.000316950,0.121518661,-0.000854605,0.009914240,0.006132393,-0.005672369,-0.000032800,0.000224218,-0.000080790
1776086968.752534628,-2.323489887,0.034201446,9.541720482,-0.004497204,0.039307009,0.020674849,0.008215561,0.012808991,-0.013542611,0.000659478,0.027756254,0.003436131,0.992576436,-0.000355075,0.121619495,-0.000769329,0.009914240,0.006132393,-0.005672369,-0.000032800,0.000224218,-0.000080790
1776086968.756572247,-2.321083985,0.005330620,9.541720482,0.001894383,0.033980686,0.016413791,0.008218683,0.012921159,-0.013528521,0.000886984,0.027805126,0.003543180,0.992568971,-0.000371556,0.121680668,-0.000718071,0.009914240,0.006132393,-0.005672369,-0.000032800,0.000224218,-0.000080790
1776086968.762503386,-2.354766615,-0.037975619,9.546532286,0.005090177,0.026523836,0.013217997,0.008224702,0.013085655,-0.013506932,0.001142689,0.027663482,0.003736848,0.992560299,-0.000383015,0.121751702,-0.000655472,0.009914240,0.006132393,-0.005672369,-0.000032800,0.000224218,-0.000080790
1776086968.767781019,-2.383637441,-0.021134304,9.553749993,0.011481764,0.016936455,0.010022204,0.008230942,0.013231135,-0.013486569,0.001221922,0.027467144,0.003979934,0.992555314,-0.000381697,0.121792575,-0.000609673,0.009914240,0.006132393,-0.005672369,-0.000032800,0.000224218,-0.000080790
1776086968.772518158,-2.412508267,-0.021134304,9.556155895,0.011481764,0.008414339,0.010022204,0.008236601,0.013360925,-0.013467068,0.001167342,0.027329814,0.004253273,0.992553450,-0.000373475,0.121807969,-0.000573234,0.009914240,0.006132393,-0.005672369,-0.000032800,0.000224218,-0.000080790
1776086968.776768923,-2.393261050,0.002924718,9.508037852,0.010416498,0.004153281,0.015348526,0.008241367,0.013476942,-0.013448657,0.001075108,0.027256709,0.004409175,0.992553433,-0.000366539,0.121808302,-0.000534775,0.009914240,0.006132393,-0.005672369,-0.000032800,0.000224218,-0.000080790
1776086968.782506227,-2.347548909,0.022171935,9.481572928,0.012547027,-0.000107776,0.010022204,0.006641916,0.013694615,-0.011541741,-0.004782033,0.027770801,0.011203293,0.992449329,-0.000303534,0.122649353,-0.001172274,0.009913239,0.006125947,-0.005667099,-0.000009617,0.000222593,-0.000095312
1776086968.786640644,-2.318678083,0.002924718,9.469543417,0.011481764,0.002022753,0.010022204,0.006622553,0.013809469,-0.011495714,-0.004584746,0.027789133,0.011062327,0.992450678,-0.000295258,0.122638754,-0.001140615,0.009913239,0.006125947,-0.005667099,-0.000009617,0.000222593,-0.000095312
1776086968.792523623,-2.265748235,-0.006698891,9.462325710,0.008285969,0.004153281,0.010022204,0.006597049,0.013972773,-0.011431558,-0.004085637,0.027728483,0.010748342,0.992451825,-0.000289694,0.122629899,-0.001094801,0.009913239,0.006125947,-0.005667099,-0.000009617,0.000222593,-0.000095312
1776086968.796601057,-2.248906920,-0.011510695,9.481572928,-0.000236146,0.008414339,0.012152733,0.006581388,0.014085689,-0.011388198,-0.003595808,0.027657004,0.010519910,0.992451819,-0.000297419,0.122630242,-0.001059429,0.009913239,0.006125947,-0.005667099,-0.000009617,0.000222593,-0.000095312
1776086968.802510500,-2.244095116,-0.004292989,9.508037852,-0.003431940,0.010544868,0.007891675,0.006562521,0.014248849,-0.011326668,-0.002789798,0.027563086,0.010304252,0.992450641,-0.000326172,0.122640126,-0.001009167,0.009913239,0.006125947,-0.005667099,-0.000009617,0.000222593,-0.000095312
1776086968.806815386,-2.258530529,0.007736522,9.551344091,-0.004497204,0.016936455,0.001500089,0.006551813,0.014367451,-0.011282324,-0.002184708,0.027538216,0.010297796,0.992448643,-0.000353065,0.122656430,-0.000983372,0.009913239,0.006125947,-0.005667099,-0.000009617,0.000222593,-0.000095312
1776086968.812538147,-2.246501018,0.036607348,9.568185406,-0.002366675,0.021197513,-0.003826234,0.006541726,0.014525297,-0.011222934,-0.001340717,0.027626117,0.010457632,0.992444099,-0.000389346,0.122693222,-0.000965911,0.009913239,0.006125947,-0.005667099,-0.000009617,0.000222593,-0.000095312
1776086968.816616297,-2.222441996,0.031795544,9.539314580,0.005090177,0.023328042,-0.014478881,0.006537624,0.014638191,-0.011180140,-0.000671149,0.027739138,0.010529724,0.992440047,-0.000407491,0.122725891,-0.000970838,0.009913239,0.006125947,-0.005667099,-0.000009617,0.000222593,-0.000095312
1776086968.822504997,-2.220036094,0.034201446,9.539314580,0.004024912,0.026523836,-0.019805200,0.006536698,0.014802006,-0.011118126,0.000356938,0.027897689,0.010532281,0.992433212,-0.000427234,0.122780828,-0.001002456,0.009913239,0.006125947,-0.005667099,-0.000009617,0.000222593,-0.000095312
1776086968.826726913,-2.229659703,0.031795544,9.546532286,0.009351235,0.026523836,-0.027262051,0.006539746,0.014920030,-0.011073617,0.001086537,0.028012654,0.010552536,0.992427883,-0.000438578,0.122823552,-0.001039068,0.009913239,0.006125947,-0.005667099,-0.000009617,0.000222593,-0.000095312
1776086968.832507372,-2.256124626,0.022171935,9.546532286,0.012547027,0.024393305,-0.032588374,0.006548654,0.015082315,-0.011012406,0.001995692,0.028137004,0.010625863,0.992420945,-0.000444160,0.122878970,-0.001109041,0.009913239,0.006125947,-0.005667099,-0.000009617,0.000222593,-0.000095312
1776086968.837757349,-2.328301692,0.036607348,9.541720482,0.014677558,0.020132247,-0.031523112,0.006560643,0.015230367,-0.010956312,0.002571631,0.028263848,0.010743300,0.992415664,-0.000442988,0.122920966,-0.001178998,0.009913239,0.006125947,-0.005667099,-0.000009617,0.000222593,-0.000095312
1776086968.842358351,-2.400478757,0.031795544,9.524879167,0.022134408,0.015871190,-0.035784166,0.006572873,0.015360717,-0.010906570,0.002744711,0.028397617,0.010878900,0.992412236,-0.000431481,0.122948027,-0.001245307,0.009913239,0.006125947,-0.005667099,-0.000009617,0.000222593,-0.000095312
1776086968.846750975,-2.393261050,0.055854566,9.457513906,0.016808085,0.014805926,-0.028327320,0.006584894,0.015485829,-0.010858817,0.002728325,0.028567332,0.010863778,0.992409683,-0.000417748,0.122968056,-0.001305414,0.009913239,0.006125947,-0.005667099,-0.000009617,0.000222593,-0.000095312
1776086968.852566719,-2.388449246,0.070289979,9.414207667,0.012547027,0.011610133,-0.028327320,0.006600576,0.015652949,-0.010796627,0.002664667,0.028904015,0.010523005,0.992407068,-0.000412075,0.122988447,-0.001372519,0.009913239,0.006125947,-0.005667099,-0.000009617,0.000222593,-0.000095312
1776086968.856638908,-2.366796126,0.070289979,9.399772254,0.005090177,0.012675397,-0.023000997,0.006611386,0.015771193,-0.010754520,0.002644719,0.029169901,0.010157190,0.992405503,-0.000419278,0.123000591,-0.001412657,0.009913239,0.006125947,-0.005667099,-0.000009617,0.000222593,-0.000095312
1776086968.862509251,-2.364390224,0.036607348,9.394960450,-0.000236146,0.010544868,-0.021935731,0.006626993,0.015943275,-0.010696653,0.002672251,0.029457886,0.009557909,0.992403443,-0.000447127,0.123016576,-0.001458901,0.009913239,0.006125947,-0.005667099,-0.000009617,0.000222593,-0.000095312
1776086968.866881609,-2.390855148,0.024577837,9.411801765,-0.005562468,0.010544868,-0.019805200,0.006638625,0.016072333,-0.010655754,0.002648730,0.029575613,0.009150009,0.992402193,-0.000479000,0.123026189,-0.001488444,0.009913239,0.006125947,-0.005667099,-0.000009617,0.000222593,-0.000095312
1776086968.872213602,-2.412508267,0.012548327,9.419019471,-0.013019320,0.010544868,-0.015544143,0.006652385,0.016230259,-0.010608043,0.002512370,0.029661426,0.008746176,0.992400669,-0.000533730,0.123037941,-0.001513920,0.009913239,0.006125947,-0.005667099,-0.000009617,0.000222593,-0.000095312
1776086968.876959324,-2.460626311,0.029389642,9.479167026,-0.019410906,0.008414339,-0.013413616,0.006663733,0.016371248,-0.010566925,0.002270284,0.029755892,0.008582151,0.992399623,-0.000597818,0.123045921,-0.001527047,0.009913239,0.006125947,-0.005667099,-0.000009617,0.000222593,-0.000095312
1776086968.883794785,-2.441379093,0.055854566,9.491196536,-0.017280377,0.010544868,-0.013413616,0.003171397,0.010728783,-0.011240138,-0.011573542,0.006041588,0.006265844,0.992408650,-0.000262092,0.122976586,-0.001327634,0.009909437,0.006126922,-0.005669305,0.000024030,0.000288325,-0.000079776
1776086968.886667252,-2.422131876,0.051042761,9.469543417,-0.020476170,0.012675397,-0.007022027,0.003137980,0.010746314,-0.011222163,-0.011693378,0.006164754,0.006249251,0.992407661,-0.000303917,0.122984455,-0.001329034,0.009909437,0.006126922,-0.005669305,0.000024030,0.000288325,-0.000079776
1776086968.892510414,-2.388449246,0.041419153,9.491196536,-0.013019320,0.011610133,-0.011283085,0.003069385,0.010782969,-0.011185857,-0.011785269,0.006381612,0.006177742,0.992405459,-0.000382435,0.123001997,-0.001329561,0.009909437,0.006126922,-0.005669305,0.000024030,0.000288325,-0.000079776
1776086968.896850348,-2.337925300,0.036607348,9.522473265,-0.007692997,0.011610133,-0.012348350,0.003018537,0.010810954,-0.011159016,-0.011647342,0.006514806,0.006191412,0.992403960,-0.000427702,0.123013858,-0.001337393,0.009909437,0.006126922,-0.005669305,0.000024030,0.000288325,-0.000079776
1776086968.902507067,-2.340331202,0.046230957,9.544126384,-0.003431940,0.009479604,-0.011283085,0.002953641,0.010848350,-0.011123626,-0.011297599,0.006706901,0.006321122,0.992402379,-0.000473251,0.123026310,-0.001349267,0.009909437,0.006126922,-0.005669305,0.000024030,0.000288325,-0.000079776
